"Participant","Stimulus","Trial_Order_Phase1","Trial_Duration_Phase1","Rating_RT_Phase1","Cue_Color","Condition","Arousal","Enticing","Valence","Trial_Order_Phase2","Trial_Duration_Phase2","Rating_RT_Phase2","Realness","Gender","SexualOrientation"
"S184","Female_007_v",1,2,8027,"green","Fiction",3,4,6,1,1,782,-3,"Male","Heterosexual"
"S184","Female_016_h",2,2,8255,"red","Reality",1,1,6,1,1,1545,-3,"Male","Heterosexual"
"S184","Opposite-sex_couple_017_v",3,2,6349,"red","Reality",1,1,3,1,1,2530,3,"Male","Heterosexual"
"S184","Opposite-sex_couple_022_v",4,2,6383,"green","Fiction",0,2,2,1,1,1131,-2,"Male","Heterosexual"
"S184","Opposite-sex_couple_012_h",5,2,6831,"green","Fiction",2,3,4,1,1,1860,-3,"Male","Heterosexual"
"S184","Female_010_h",6,2,4342,"red","Reality",5,4,6,1,1,1252,1,"Male","Heterosexual"
"S184","Opposite-sex_couple_015_h",7,2,5610,"red","Reality",2,3,3,1,1,1001,2,"Male","Heterosexual"
"S184","Female_017_v",8,2,4735,"red","Reality",5,4,6,1,1,1436,-3,"Male","Heterosexual"
"S184","Opposite-sex_couple_008_h",9,2,13552,"red","Reality",2,3,3,1,1,770,3,"Male","Heterosexual"
"S184","Female_023_h",10,2,4098,"green","Fiction",4,4,5,1,1,1565,-1,"Male","Heterosexual"
"S184","Opposite-sex_couple_042_h",11,2,5917,"green","Fiction",1,0,3,1,1,1414,-3,"Male","Heterosexual"
"S184","Opposite-sex_couple_009_h",12,2,5273,"red","Reality",2,3,4,1,1,1480,0,"Male","Heterosexual"
"S184","Female_008_v",13,2,7251,"red","Reality",5,4,4,1,1,766,3,"Male","Heterosexual"
"S184","Female_012_v",14,2,3817,"green","Fiction",6,6,6,1,1,1156,-2,"Male","Heterosexual"
"S184","Female_013_h",15,2,6553,"red","Reality",2,4,3,1,1,775,-3,"Male","Heterosexual"
"S184","Opposite-sex_couple_033_v",16,2,11783,"red","Reality",2,2,3,1,1,1604,0,"Male","Heterosexual"
"S184","Female_005_v",17,2,4487,"green","Fiction",4,5,3,1,1,1004,2,"Male","Heterosexual"
"S184","Opposite-sex_couple_020_h",18,2,3933,"red","Reality",1,4,4,1,1,1999,2,"Male","Heterosexual"
"S184","Opposite-sex_couple_016_v",19,2,3691,"green","Fiction",0,0,2,1,1,1940,0,"Male","Heterosexual"
"S184","Female_009_h",20,2,2654,"green","Fiction",6,6,6,1,1,936,0,"Male","Heterosexual"
"S184","Opposite-sex_couple_001_v",21,2,4053,"green","Fiction",2,1,3,1,1,1195,0,"Male","Heterosexual"
"S184","Female_021_h",22,2,2090,"green","Fiction",6,6,6,1,1,1169,3,"Male","Heterosexual"
"S184","Opposite-sex_couple_024_h",23,2,3794,"green","Fiction",3,4,3,1,1,2176,2,"Male","Heterosexual"
"S184","Opposite-sex_couple_013_h",24,2,3209,"red","Reality",0,0,5,1,1,973,3,"Male","Heterosexual"
"S184","Female_003_v",25,2,1868,"green","Fiction",6,6,6,1,1,1238,3,"Male","Heterosexual"
"S184","Female_006_v",26,2,2114,"red","Reality",5,5,6,1,1,809,-3,"Male","Heterosexual"
"S184","Female_001_h",27,2,3209,"red","Reality",6,6,6,1,1,992,3,"Male","Heterosexual"
"S184","Female_019_h",28,2,2340,"green","Fiction",6,6,6,1,1,946,2,"Male","Heterosexual"
"S184","Female_011_h",29,2,5645,"green","Fiction",3,4,5,1,1,827,-3,"Male","Heterosexual"
"S184","Opposite-sex_couple_048_h",30,2,7663,"red","Reality",0,3,4,1,1,1580,2,"Male","Heterosexual"
"S184","Female_022_h",31,2,3193,"red","Reality",6,6,6,1,1,882,3,"Male","Heterosexual"
"S184","Female_025_h",32,2,3490,"red","Reality",4,5,4,1,1,993,-3,"Male","Heterosexual"
"S184","Opposite-sex_couple_018_h",33,2,6571,"red","Reality",0,0,0,1,1,1078,3,"Male","Heterosexual"
"S184","Opposite-sex_couple_025_h",34,2,2502,"green","Fiction",5,5,6,1,1,983,3,"Male","Heterosexual"
"S184","Opposite-sex_couple_007_h",35,2,3113,"green","Fiction",0,0,5,1,1,911,3,"Male","Heterosexual"
"S184","Opposite-sex_couple_023_h",36,2,3197,"red","Reality",0,0,0,1,1,1464,-2,"Male","Heterosexual"
"S184","Female_018_h",37,2,2320,"red","Reality",6,6,6,1,1,953,-1,"Male","Heterosexual"
"S184","Female_024_v",38,2,3206,"red","Reality",5,4,6,1,1,1156,-2,"Male","Heterosexual"
"S184","Opposite-sex_couple_011_h",39,2,3361,"green","Fiction",0,2,3,1,1,1157,-2,"Male","Heterosexual"
"S184","Opposite-sex_couple_002_h",40,2,3292,"red","Reality",2,1,4,1,1,1703,-3,"Male","Heterosexual"
"S184","Female_002_h",41,2,2971,"red","Reality",6,5,6,1,1,1375,1,"Male","Heterosexual"
"S184","Opposite-sex_couple_005_h",42,2,5178,"green","Fiction",0,3,2,1,1,2143,3,"Male","Heterosexual"
"S184","Female_004_v",43,2,1771,"green","Fiction",6,6,6,1,1,1789,-1,"Male","Heterosexual"
"S184","Female_020_v",44,2,3887,"red","Reality",6,6,6,1,1,905,-1,"Male","Heterosexual"
"S184","Opposite-sex_couple_035_h",45,2,6758,"red","Reality",0,0,5,1,1,1050,-3,"Male","Heterosexual"
"S184","Female_014_v",46,2,1929,"green","Fiction",6,6,6,1,1,1011,-2,"Male","Heterosexual"
"S184","Opposite-sex_couple_019_v",47,2,3008,"green","Fiction",0,0,6,1,1,1052,-1,"Male","Heterosexual"
"S184","Opposite-sex_couple_047_v",48,2,4219,"green","Fiction",0,0,2,1,1,870,-2,"Male","Heterosexual"
"S184","Opposite-sex_couple_014_h",49,2,4720,"red","Reality",1,2,4,1,1,2152,3,"Male","Heterosexual"
"S184","Female_015_v",50,2,3946,"green","Fiction",2,5,5,1,1,984,-3,"Male","Heterosexual"
"S189","Opposite-sex_couple_047_v",1,2,14302,"blue","Reality",1,4,4,1,1,2454,-1,"Female","Heterosexual"
"S189","Opposite-sex_couple_005_h",2,2,13066,"green","Fiction",4,5,4,1,1,1251,3,"Female","Heterosexual"
"S189","Male_016_v",3,2,19499,"green","Fiction",1,3,3,1,1,1617,0,"Female","Heterosexual"
"S189","Male_003_v",4,2,19163,"blue","Reality",2,2,2,1,1,2619,-2,"Female","Heterosexual"
"S189","Opposite-sex_couple_008_h",5,2,13494,"blue","Reality",4,5,5,1,1,1600,3,"Female","Heterosexual"
"S189","Male_008_v",6,2,11823,"green","Fiction",5,6,5,1,1,1175,3,"Female","Heterosexual"
"S189","Opposite-sex_couple_023_h",7,2,6793,"blue","Reality",6,5,6,1,1,3283,0,"Female","Heterosexual"
"S189","Opposite-sex_couple_017_v",8,2,5583,"blue","Reality",2,3,3,1,1,3175,1,"Female","Heterosexual"
"S189","Opposite-sex_couple_001_v",9,2,8604,"green","Fiction",1,2,2,1,1,1456,-1,"Female","Heterosexual"
"S189","Opposite-sex_couple_042_h",10,2,9921,"blue","Reality",0,2,1,1,1,1451,-3,"Female","Heterosexual"
"S189","Male_006_v",11,2,14246,"blue","Reality",1,2,3,1,1,2198,2,"Female","Heterosexual"
"S189","Male_025_v",12,2,10950,"blue","Reality",0,3,4,1,1,4723,2,"Female","Heterosexual"
"S189","Male_004_v",13,2,10111,"blue","Reality",3,4,5,1,1,2655,-2,"Female","Heterosexual"
"S189","Male_020_v",14,2,8726,"green","Fiction",3,4,4,1,1,1628,-1,"Female","Heterosexual"
"S189","Opposite-sex_couple_013_h",15,2,13924,"green","Fiction",1,1,1,1,1,2282,2,"Female","Heterosexual"
"S189","Opposite-sex_couple_048_h",16,2,8310,"blue","Reality",0,1,1,1,1,2541,3,"Female","Heterosexual"
"S189","Male_001_v",17,2,7117,"blue","Reality",0,0,0,1,1,3267,-1,"Female","Heterosexual"
"S189","Opposite-sex_couple_024_h",18,2,8463,"blue","Reality",4,5,5,1,1,1374,3,"Female","Heterosexual"
"S189","Male_023_v",19,2,8368,"green","Fiction",1,4,5,1,1,2054,3,"Female","Heterosexual"
"S189","Male_007_h",20,2,7316,"blue","Reality",0,2,2,1,1,3899,1,"Female","Heterosexual"
"S189","Opposite-sex_couple_018_h",21,2,6710,"green","Fiction",2,4,4,1,1,1830,3,"Female","Heterosexual"
"S189","Male_021_h",22,2,18932,"green","Fiction",0,3,2,1,1,2537,2,"Female","Heterosexual"
"S189","Male_019_h",23,2,3663,"green","Fiction",0,1,1,1,1,1686,0,"Female","Heterosexual"
"S189","Male_002_v",24,2,7848,"green","Fiction",1,3,2,1,1,1694,1,"Female","Heterosexual"
"S189","Male_015_v",25,2,12493,"blue","Reality",1,3,4,1,1,1379,-1,"Female","Heterosexual"
"S189","Opposite-sex_couple_020_h",26,2,6266,"green","Fiction",3,4,5,1,1,2497,-2,"Female","Heterosexual"
"S189","Male_017_v",27,2,5713,"blue","Reality",1,2,2,1,1,2157,-2,"Female","Heterosexual"
"S189","Opposite-sex_couple_016_v",28,2,7093,"green","Fiction",1,3,3,1,1,2565,0,"Female","Heterosexual"
"S189","Male_009_v",29,2,9837,"blue","Reality",2,4,5,1,1,3671,2,"Female","Heterosexual"
"S189","Opposite-sex_couple_033_v",30,2,10415,"green","Fiction",2,3,3,1,1,1389,1,"Female","Heterosexual"
"S189","Opposite-sex_couple_007_h",31,2,9345,"blue","Reality",1,2,3,1,1,1550,2,"Female","Heterosexual"
"S189","Male_022_v",32,2,6795,"green","Fiction",3,5,5,1,1,3141,3,"Female","Heterosexual"
"S189","Opposite-sex_couple_014_h",33,2,9570,"blue","Reality",5,6,5,1,1,1770,3,"Female","Heterosexual"
"S189","Male_012_h",34,2,5873,"blue","Reality",3,5,6,1,1,1206,3,"Female","Heterosexual"
"S189","Opposite-sex_couple_002_h",35,2,8215,"green","Fiction",2,3,3,1,1,2486,0,"Female","Heterosexual"
"S189","Opposite-sex_couple_009_h",36,2,7445,"green","Fiction",3,4,3,1,1,2731,0,"Female","Heterosexual"
"S189","Male_024_h",37,2,8286,"blue","Reality",2,4,5,1,1,2170,-3,"Female","Heterosexual"
"S189","Male_013_v",38,2,10842,"blue","Reality",2,4,4,1,1,1739,1,"Female","Heterosexual"
"S189","Opposite-sex_couple_035_h",39,2,7362,"blue","Reality",0,2,3,1,1,2360,-2,"Female","Heterosexual"
"S189","Opposite-sex_couple_012_h",40,2,6774,"blue","Reality",5,6,6,1,1,1383,3,"Female","Heterosexual"
"S189","Male_014_v",41,2,15672,"green","Fiction",4,5,6,1,1,1962,3,"Female","Heterosexual"
"S189","Opposite-sex_couple_019_v",42,2,10485,"blue","Reality",0,4,5,1,1,2461,0,"Female","Heterosexual"
"S189","Opposite-sex_couple_011_h",43,2,15874,"green","Fiction",0,4,5,1,1,2693,0,"Female","Heterosexual"
"S189","Male_010_v",44,2,5751,"green","Fiction",2,4,4,1,1,1466,2,"Female","Heterosexual"
"S189","Opposite-sex_couple_022_v",45,2,10815,"green","Fiction",1,3,4,1,1,1914,1,"Female","Heterosexual"
"S189","Opposite-sex_couple_015_h",46,2,9326,"blue","Reality",1,3,4,1,1,2739,2,"Female","Heterosexual"
"S189","Opposite-sex_couple_025_h",47,2,7988,"green","Fiction",4,5,6,1,1,3383,3,"Female","Heterosexual"
"S189","Male_005_v",48,2,13911,"blue","Reality",0,2,2,1,1,1745,-3,"Female","Heterosexual"
"S189","Male_011_v",49,2,7063,"green","Fiction",3,6,6,1,1,1293,-1,"Female","Heterosexual"
"S189","Male_018_v",50,2,7745,"green","Fiction",0,5,6,1,1,4092,1,"Female","Heterosexual"
"S130","Male_012_h",1,2,9126,"green","Fiction",1,0,2,1,1,1149,2,"Male","Homosexual"
"S130","Male_couple_010_h",2,2,8313,"green","Fiction",1,2,5,1,1,2263,3,"Male","Homosexual"
"S130","Male_couple_012_v",3,2,6252,"blue","Reality",1,3,4,1,1,1734,2,"Male","Homosexual"
"S130","Male_couple_019_h",4,2,5157,"blue","Reality",0,0,0,1,1,2694,1,"Male","Homosexual"
"S130","Male_couple_003_v",5,2,4724,"green","Fiction",0,2,6,1,1,1783,-2,"Male","Homosexual"
"S130","Male_004_v",6,2,7359,"green","Fiction",3,2,3,1,1,1604,-1,"Male","Homosexual"
"S130","Male_003_v",7,2,6389,"green","Fiction",4,4,4,1,1,1536,-3,"Male","Homosexual"
"S130","Male_couple_021_h",8,2,5595,"green","Fiction",1,2,4,1,1,1301,-1,"Male","Homosexual"
"S130","Male_021_h",9,2,6533,"green","Fiction",0,2,3,1,1,1070,2,"Male","Homosexual"
"S130","Male_007_h",10,2,4946,"green","Fiction",0,0,1,1,1,1894,2,"Male","Homosexual"
"S130","Male_couple_016_h",11,2,5371,"blue","Reality",2,2,3,1,1,1499,-3,"Male","Homosexual"
"S130","Male_couple_009_v",12,2,5926,"green","Fiction",3,3,3,1,1,2107,3,"Male","Homosexual"
"S130","Male_020_v",13,2,8503,"blue","Reality",0,1,2,1,1,1446,-3,"Male","Homosexual"
"S130","Male_couple_015_v",14,2,6814,"blue","Reality",1,2,2,1,1,1087,3,"Male","Homosexual"
"S130","Male_008_v",15,2,7034,"blue","Reality",1,3,3,1,1,1204,-2,"Male","Homosexual"
"S130","Male_019_h",16,2,2828,"green","Fiction",0,0,0,1,1,1326,3,"Male","Homosexual"
"S130","Male_couple_022_v",17,2,4578,"green","Fiction",0,0,1,1,1,1035,3,"Male","Homosexual"
"S130","Male_018_v",18,2,5914,"blue","Reality",0,0,2,1,1,1249,-3,"Male","Homosexual"
"S130","Male_022_v",19,2,7857,"blue","Reality",2,2,2,1,1,1599,1,"Male","Homosexual"
"S130","Male_couple_013_h",20,2,6262,"blue","Reality",0,3,6,1,1,2883,2,"Male","Homosexual"
"S130","Male_couple_018_h",21,2,5957,"blue","Reality",0,1,6,1,1,954,2,"Male","Homosexual"
"S130","Male_couple_011_v",22,2,5252,"blue","Reality",0,0,2,1,1,1633,1,"Male","Homosexual"
"S130","Male_015_v",23,2,4977,"blue","Reality",0,1,1,1,1,1119,2,"Male","Homosexual"
"S130","Male_014_v",24,2,6922,"blue","Reality",0,2,2,1,1,1172,3,"Male","Homosexual"
"S130","Male_couple_020_h",25,2,8953,"green","Fiction",3,3,3,1,1,1106,3,"Male","Homosexual"
"S130","Male_016_v",26,2,6018,"blue","Reality",1,2,2,1,1,2087,2,"Male","Homosexual"
"S130","Male_couple_014_h",27,2,5349,"green","Fiction",2,2,2,1,1,973,3,"Male","Homosexual"
"S130","Male_couple_044_h",28,2,5132,"blue","Reality",1,2,3,1,1,1060,3,"Male","Homosexual"
"S130","Male_couple_029_h",29,2,4803,"green","Fiction",1,2,3,1,1,826,2,"Male","Homosexual"
"S130","Male_couple_023_v",30,2,6208,"blue","Reality",1,2,2,1,1,1706,-3,"Male","Homosexual"
"S130","Male_006_v",31,2,4710,"blue","Reality",1,2,2,1,1,1052,2,"Male","Homosexual"
"S130","Male_010_v",32,2,5607,"green","Fiction",1,2,2,1,1,1086,-1,"Male","Homosexual"
"S130","Male_013_v",33,2,4875,"green","Fiction",0,0,0,1,1,1719,2,"Male","Homosexual"
"S130","Male_couple_033_v",34,2,3371,"green","Fiction",0,0,0,1,1,1002,1,"Male","Homosexual"
"S130","Male_001_v",35,2,6040,"green","Fiction",1,2,2,1,1,1583,2,"Male","Homosexual"
"S130","Male_011_v",36,2,3991,"blue","Reality",0,0,0,1,1,1711,-1,"Male","Homosexual"
"S130","Male_couple_025_v",37,2,5292,"green","Fiction",1,2,2,1,1,1031,2,"Male","Homosexual"
"S130","Male_005_v",38,2,4610,"blue","Reality",0,0,0,1,1,1140,-3,"Male","Homosexual"
"S130","Male_025_v",39,2,2535,"green","Fiction",0,0,0,1,1,1175,1,"Male","Homosexual"
"S130","Male_024_h",40,2,3828,"blue","Reality",0,0,0,1,1,1090,-2,"Male","Homosexual"
"S130","Male_couple_047_h",41,2,4678,"blue","Reality",0,1,1,1,1,1259,-2,"Male","Homosexual"
"S130","Male_002_v",42,2,3342,"blue","Reality",0,0,0,1,1,4047,1,"Male","Homosexual"
"S130","Male_couple_002_h",43,2,3953,"blue","Reality",2,3,3,1,1,2268,2,"Male","Homosexual"
"S130","Male_couple_037_v",44,2,2546,"blue","Reality",0,0,0,1,1,7716,-1,"Male","Homosexual"
"S130","Male_couple_024_h",45,2,5884,"green","Fiction",0,1,1,1,1,1460,1,"Male","Homosexual"
"S130","Male_017_v",46,2,7324,"green","Fiction",3,4,4,1,1,1577,-3,"Male","Homosexual"
"S130","Male_couple_006_h",47,2,4808,"green","Fiction",0,1,2,1,1,1419,-3,"Male","Homosexual"
"S130","Male_009_v",48,2,3845,"green","Fiction",2,3,3,1,1,1281,-2,"Male","Homosexual"
"S130","Male_023_v",49,2,8205,"blue","Reality",1,1,1,1,1,1113,-1,"Male","Homosexual"
"S130","Male_couple_007_v",50,2,3299,"blue","Reality",0,0,1,1,1,1895,-2,"Male","Homosexual"
"S163","Female_014_v",1,2,7480,"red","Reality",4,5,3,1,1,1487,2,"Male","Heterosexual"
"S163","Female_011_h",2,2,7363,"green","Fiction",3,3,4,1,1,2311,-3,"Male","Heterosexual"
"S163","Opposite-sex_couple_018_h",3,2,9433,"green","Fiction",4,3,3,1,1,1645,2,"Male","Heterosexual"
"S163","Opposite-sex_couple_048_h",4,2,7799,"green","Fiction",1,2,2,1,1,1271,2,"Male","Heterosexual"
"S163","Opposite-sex_couple_020_h",5,2,5564,"green","Fiction",4,5,3,1,1,1353,1,"Male","Heterosexual"
"S163","Female_012_v",6,2,4424,"green","Fiction",3,2,3,1,1,1628,-1,"Male","Heterosexual"
"S163","Female_013_h",7,2,6946,"green","Fiction",2,2,4,1,1,1474,-2,"Male","Heterosexual"
"S163","Female_022_h",8,2,7530,"red","Reality",5,4,5,1,1,1510,2,"Male","Heterosexual"
"S163","Female_010_h",9,2,5753,"red","Reality",3,3,5,1,1,1404,1,"Male","Heterosexual"
"S163","Female_008_v",10,2,6976,"red","Reality",2,3,5,1,1,1918,-2,"Male","Heterosexual"
"S163","Female_019_h",11,2,4987,"green","Fiction",3,2,3,1,1,1319,-2,"Male","Heterosexual"
"S163","Female_007_v",12,2,7503,"red","Reality",1,1,2,1,1,1626,2,"Male","Heterosexual"
"S163","Female_015_v",13,2,6926,"red","Reality",0,2,2,1,1,1232,-2,"Male","Heterosexual"
"S163","Opposite-sex_couple_042_h",14,2,5738,"red","Reality",0,1,3,1,1,2884,1,"Male","Heterosexual"
"S163","Opposite-sex_couple_009_h",15,2,4908,"red","Reality",4,3,4,1,1,2108,1,"Male","Heterosexual"
"S163","Opposite-sex_couple_017_v",16,2,5560,"green","Fiction",2,3,2,1,1,2394,-1,"Male","Heterosexual"
"S163","Female_005_v",17,2,4993,"red","Reality",4,3,3,1,1,1578,1,"Male","Heterosexual"
"S163","Female_001_h",18,2,6318,"green","Fiction",0,1,3,1,1,1547,-2,"Male","Heterosexual"
"S163","Female_021_h",19,2,7160,"red","Reality",5,4,4,1,1,1472,-1,"Male","Heterosexual"
"S163","Opposite-sex_couple_007_h",20,2,5009,"red","Reality",0,3,4,1,1,1544,2,"Male","Heterosexual"
"S163","Female_003_v",21,2,4598,"red","Reality",5,5,5,1,1,1579,2,"Male","Heterosexual"
"S163","Opposite-sex_couple_005_h",22,2,5958,"green","Fiction",3,3,4,1,1,1525,-2,"Male","Heterosexual"
"S163","Opposite-sex_couple_002_h",23,2,5828,"green","Fiction",2,3,4,1,1,1887,-1,"Male","Heterosexual"
"S163","Opposite-sex_couple_001_v",24,2,8580,"red","Reality",0,4,4,1,1,2313,-2,"Male","Heterosexual"
"S163","Female_009_h",25,2,5053,"green","Fiction",4,4,5,1,1,1212,-2,"Male","Heterosexual"
"S163","Opposite-sex_couple_025_h",26,2,5214,"green","Fiction",5,5,5,1,1,1477,2,"Male","Heterosexual"
"S163","Opposite-sex_couple_024_h",27,2,6189,"red","Reality",4,5,5,1,1,1786,-2,"Male","Heterosexual"
"S163","Female_016_h",28,2,5684,"red","Reality",1,3,5,1,1,1247,-3,"Male","Heterosexual"
"S163","Female_024_v",29,2,4339,"green","Fiction",3,4,3,1,1,2272,-2,"Male","Heterosexual"
"S163","Female_025_h",30,2,4230,"red","Reality",2,5,5,1,1,1547,2,"Male","Heterosexual"
"S163","Female_002_h",31,2,4412,"green","Fiction",4,4,5,1,1,3487,-2,"Male","Heterosexual"
"S163","Opposite-sex_couple_012_h",32,2,6175,"red","Reality",4,5,4,1,1,1991,3,"Male","Heterosexual"
"S163","Female_018_h",33,2,3604,"green","Fiction",4,5,5,1,1,1511,-2,"Male","Heterosexual"
"S163","Opposite-sex_couple_008_h",34,2,6064,"red","Reality",3,4,5,1,1,1457,2,"Male","Heterosexual"
"S163","Opposite-sex_couple_016_v",35,2,7291,"green","Fiction",0,2,2,1,1,1593,-2,"Male","Heterosexual"
"S163","Female_017_v",36,2,3731,"green","Fiction",3,4,4,1,1,1721,-2,"Male","Heterosexual"
"S163","Opposite-sex_couple_035_h",37,2,5593,"red","Reality",0,3,5,1,1,3527,-1,"Male","Heterosexual"
"S163","Opposite-sex_couple_011_h",38,2,5666,"red","Reality",1,4,6,1,1,1517,1,"Male","Heterosexual"
"S163","Female_023_h",39,2,4408,"red","Reality",3,3,4,1,1,1471,-2,"Male","Heterosexual"
"S163","Female_004_v",40,2,3859,"green","Fiction",1,3,3,1,1,1441,2,"Male","Heterosexual"
"S163","Opposite-sex_couple_022_v",41,2,4071,"green","Fiction",0,2,3,1,1,2466,-1,"Male","Heterosexual"
"S163","Female_006_v",42,2,4099,"green","Fiction",2,3,5,1,1,2971,-2,"Male","Heterosexual"
"S163","Opposite-sex_couple_013_h",43,2,6842,"red","Reality",0,3,3,1,1,2102,3,"Male","Heterosexual"
"S163","Opposite-sex_couple_033_v",44,2,4415,"green","Fiction",2,4,4,1,1,1528,1,"Male","Heterosexual"
"S163","Opposite-sex_couple_023_h",45,2,4526,"green","Fiction",1,2,2,1,1,1786,-3,"Male","Heterosexual"
"S163","Opposite-sex_couple_014_h",46,2,4963,"red","Reality",4,4,5,1,1,1935,-2,"Male","Heterosexual"
"S163","Opposite-sex_couple_047_v",47,2,15028,"green","Fiction",0,3,4,1,1,1481,1,"Male","Heterosexual"
"S163","Female_020_v",48,2,4145,"red","Reality",4,5,5,1,1,1627,2,"Male","Heterosexual"
"S163","Opposite-sex_couple_019_v",49,2,4333,"red","Reality",0,3,5,1,1,1541,2,"Male","Heterosexual"
"S163","Opposite-sex_couple_015_h",50,2,5861,"red","Reality",3,4,4,1,1,1350,1,"Male","Heterosexual"
"S092","Opposite-sex_couple_033_v",1,2,15242,"red","Reality",0,1,3,1,1,842,3,"Female","Heterosexual"
"S092","Male_007_h",2,2,9073,"blue","Fiction",0,0,1,1,1,1440,3,"Female","Heterosexual"
"S092","Opposite-sex_couple_018_h",3,2,18381,"blue","Fiction",0,2,2,1,1,921,3,"Female","Heterosexual"
"S092","Male_018_v",4,2,4813,"blue","Fiction",0,0,0,1,1,899,3,"Female","Heterosexual"
"S092","Opposite-sex_couple_014_h",5,2,8245,"red","Reality",3,3,4,1,1,964,3,"Female","Heterosexual"
"S092","Male_019_h",6,2,4630,"blue","Fiction",0,0,0,1,1,960,3,"Female","Heterosexual"
"S092","Opposite-sex_couple_016_v",7,2,4757,"blue","Fiction",0,0,4,1,1,1225,3,"Female","Heterosexual"
"S092","Male_004_v",8,2,7459,"blue","Fiction",0,4,4,1,1,810,3,"Female","Heterosexual"
"S092","Opposite-sex_couple_012_h",9,2,4383,"red","Reality",0,0,0,1,1,1055,3,"Female","Heterosexual"
"S092","Male_001_v",10,2,3995,"blue","Fiction",0,0,0,1,1,881,3,"Female","Heterosexual"
"S092","Male_016_v",11,2,3685,"red","Reality",0,0,0,1,1,966,2,"Female","Heterosexual"
"S092","Opposite-sex_couple_025_h",12,2,7697,"blue","Fiction",4,4,4,1,1,4246,3,"Female","Heterosexual"
"S092","Male_015_v",13,2,5667,"blue","Fiction",0,6,5,1,1,1193,3,"Female","Heterosexual"
"S092","Opposite-sex_couple_017_v",14,2,4374,"blue","Fiction",0,0,0,1,1,782,3,"Female","Heterosexual"
"S092","Opposite-sex_couple_022_v",15,2,4055,"red","Reality",0,0,0,1,1,826,3,"Female","Heterosexual"
"S092","Male_023_v",16,2,7417,"red","Reality",0,5,5,1,1,958,3,"Female","Heterosexual"
"S092","Opposite-sex_couple_007_h",17,2,5248,"blue","Fiction",0,0,3,1,1,1459,3,"Female","Heterosexual"
"S092","Male_006_v",18,2,3744,"red","Reality",0,0,0,1,1,765,3,"Female","Heterosexual"
"S092","Male_008_v",19,2,3256,"blue","Fiction",0,0,0,1,1,815,3,"Female","Heterosexual"
"S092","Male_012_h",20,2,3244,"blue","Fiction",0,0,0,1,1,2247,3,"Female","Heterosexual"
"S092","Opposite-sex_couple_015_h",21,2,3853,"red","Reality",0,0,0,1,1,1129,3,"Female","Heterosexual"
"S092","Male_002_v",22,2,5921,"blue","Fiction",0,1,1,1,1,817,3,"Female","Heterosexual"
"S092","Opposite-sex_couple_023_h",23,2,3906,"red","Reality",0,0,0,1,1,858,3,"Female","Heterosexual"
"S092","Opposite-sex_couple_011_h",24,2,4361,"red","Reality",0,2,1,1,1,967,3,"Female","Heterosexual"
"S092","Opposite-sex_couple_005_h",25,2,5155,"blue","Fiction",3,3,3,1,1,2769,3,"Female","Heterosexual"
"S092","Opposite-sex_couple_019_v",26,2,6840,"red","Reality",0,2,6,1,1,2466,-3,"Female","Heterosexual"
"S092","Opposite-sex_couple_048_h",27,2,4912,"blue","Fiction",0,0,1,1,1,795,3,"Female","Heterosexual"
"S092","Opposite-sex_couple_002_h",28,2,3979,"blue","Fiction",0,0,0,1,1,839,3,"Female","Heterosexual"
"S092","Opposite-sex_couple_047_v",29,2,3189,"red","Reality",0,0,0,1,1,920,3,"Female","Heterosexual"
"S092","Opposite-sex_couple_042_h",30,2,8381,"blue","Fiction",0,2,2,1,1,881,3,"Female","Heterosexual"
"S092","Male_020_v",31,2,2625,"red","Reality",0,0,0,1,1,3760,3,"Female","Heterosexual"
"S092","Opposite-sex_couple_020_h",32,2,6220,"red","Reality",1,3,3,1,1,2314,2,"Female","Heterosexual"
"S092","Male_014_v",33,2,3520,"red","Reality",0,0,0,1,1,1118,3,"Female","Heterosexual"
"S092","Opposite-sex_couple_001_v",34,2,4821,"red","Reality",0,0,1,1,1,1442,-2,"Female","Heterosexual"
"S092","Male_022_v",35,2,4755,"red","Reality",0,1,1,1,1,1079,3,"Female","Heterosexual"
"S092","Male_017_v",36,2,3777,"blue","Fiction",0,0,0,1,1,1052,3,"Female","Heterosexual"
"S092","Opposite-sex_couple_024_h",37,2,3719,"blue","Fiction",1,1,2,1,1,1171,2,"Female","Heterosexual"
"S092","Male_009_v",38,2,4816,"red","Reality",0,2,2,1,1,1625,2,"Female","Heterosexual"
"S092","Opposite-sex_couple_035_h",39,2,7885,"blue","Fiction",0,1,4,1,1,1318,3,"Female","Heterosexual"
"S092","Opposite-sex_couple_009_h",40,2,2814,"red","Reality",0,0,0,1,1,975,3,"Female","Heterosexual"
"S092","Opposite-sex_couple_013_h",41,2,22785,"blue","Fiction",0,0,0,1,1,908,3,"Female","Heterosexual"
"S092","Male_003_v",42,2,5387,"red","Reality",0,0,0,1,1,827,3,"Female","Heterosexual"
"S092","Male_021_h",43,2,20986,"red","Reality",0,0,0,1,1,7280,3,"Female","Heterosexual"
"S092","Male_005_v",44,2,4009,"red","Reality",0,0,0,1,1,928,3,"Female","Heterosexual"
"S092","Male_010_v",45,2,2249,"red","Reality",0,0,0,1,1,780,3,"Female","Heterosexual"
"S092","Male_024_h",46,2,3819,"red","Reality",0,1,1,1,1,2264,0,"Female","Heterosexual"
"S092","Opposite-sex_couple_008_h",47,2,3400,"red","Reality",0,0,0,1,1,801,3,"Female","Heterosexual"
"S092","Male_013_v",48,2,3239,"blue","Fiction",0,0,0,1,1,982,3,"Female","Heterosexual"
"S092","Male_025_v",49,2,2208,"red","Reality",0,0,0,1,1,824,3,"Female","Heterosexual"
"S092","Male_011_v",50,2,5849,"blue","Fiction",0,0,0,1,1,939,3,"Female","Heterosexual"
"S040","Opposite-sex_couple_016_v",1,2,11077,"blue","Fiction",2,3,3,1,1,1305,2,"Female","Heterosexual"
"S040","Opposite-sex_couple_047_v",2,2,11000,"blue","Fiction",0,1,3,1,1,1504,1,"Female","Heterosexual"
"S040","Opposite-sex_couple_018_h",3,2,8031,"blue","Fiction",1,1,2,1,1,1804,3,"Female","Heterosexual"
"S040","Opposite-sex_couple_035_h",4,2,7394,"green","Reality",1,3,3,1,1,2679,-2,"Female","Heterosexual"
"S040","Male_010_v",5,2,5805,"green","Reality",2,3,4,1,1,2166,2,"Female","Heterosexual"
"S040","Male_009_v",6,2,7676,"blue","Fiction",1,2,3,1,1,1444,0,"Female","Heterosexual"
"S040","Male_021_h",7,2,5843,"blue","Fiction",1,2,3,1,1,1078,1,"Female","Heterosexual"
"S040","Male_008_v",8,2,11791,"blue","Fiction",2,4,3,1,1,2525,1,"Female","Heterosexual"
"S040","Male_018_v",9,2,6254,"green","Reality",1,2,3,1,1,1924,-2,"Female","Heterosexual"
"S040","Male_014_v",10,2,5573,"green","Reality",4,4,4,1,1,1748,-2,"Female","Heterosexual"
"S040","Male_015_v",11,2,7095,"green","Reality",3,3,3,1,1,2477,-1,"Female","Heterosexual"
"S040","Male_013_v",12,2,4534,"blue","Fiction",2,2,3,1,1,1690,0,"Female","Heterosexual"
"S040","Male_016_v",13,2,5336,"green","Reality",4,4,4,1,1,3040,0,"Female","Heterosexual"
"S040","Opposite-sex_couple_013_h",14,2,8933,"green","Reality",1,1,2,1,1,2183,1,"Female","Heterosexual"
"S040","Opposite-sex_couple_025_h",15,2,7348,"green","Reality",5,5,4,1,1,1881,2,"Female","Heterosexual"
"S040","Male_007_h",16,2,4749,"green","Reality",3,3,3,1,1,1297,3,"Female","Heterosexual"
"S040","Male_025_v",17,2,6829,"green","Reality",0,1,3,1,1,1984,1,"Female","Heterosexual"
"S040","Male_004_v",18,2,5824,"blue","Fiction",2,2,3,1,1,1301,0,"Female","Heterosexual"
"S040","Opposite-sex_couple_007_h",19,2,6861,"green","Reality",1,2,3,1,1,1621,1,"Female","Heterosexual"
"S040","Male_012_h",20,2,4787,"green","Reality",3,3,3,1,1,1367,2,"Female","Heterosexual"
"S040","Opposite-sex_couple_005_h",21,2,5294,"blue","Fiction",5,4,4,1,1,2672,2,"Female","Heterosexual"
"S040","Male_001_v",22,2,4210,"green","Reality",0,0,1,1,1,1802,2,"Female","Heterosexual"
"S040","Male_005_v",23,2,8099,"blue","Fiction",0,1,2,1,1,1442,-3,"Female","Heterosexual"
"S040","Opposite-sex_couple_001_v",24,2,5589,"green","Reality",1,2,3,1,1,1855,-3,"Female","Heterosexual"
"S040","Opposite-sex_couple_014_h",25,2,6332,"blue","Fiction",2,2,3,1,1,2345,1,"Female","Heterosexual"
"S040","Opposite-sex_couple_019_v",26,2,5136,"blue","Fiction",0,0,3,1,1,1289,-2,"Female","Heterosexual"
"S040","Opposite-sex_couple_048_h",27,2,5955,"green","Reality",4,4,4,1,1,1490,1,"Female","Heterosexual"
"S040","Male_019_h",28,2,7698,"blue","Fiction",1,2,3,1,1,1502,2,"Female","Heterosexual"
"S040","Opposite-sex_couple_020_h",29,2,6317,"blue","Fiction",3,3,3,1,1,1303,-3,"Female","Heterosexual"
"S040","Male_002_v",30,2,4242,"blue","Fiction",3,3,3,1,1,1395,3,"Female","Heterosexual"
"S040","Opposite-sex_couple_017_v",31,2,5031,"green","Reality",3,4,4,1,1,1936,1,"Female","Heterosexual"
"S040","Opposite-sex_couple_042_h",32,2,4577,"green","Reality",1,1,3,1,1,1452,-1,"Female","Heterosexual"
"S040","Male_017_v",33,2,4855,"green","Reality",0,0,2,1,1,2434,-3,"Female","Heterosexual"
"S040","Male_011_v",34,2,4522,"blue","Fiction",2,2,3,1,1,1299,-2,"Female","Heterosexual"
"S040","Male_022_v",35,2,5463,"green","Reality",3,4,3,1,1,1328,-3,"Female","Heterosexual"
"S040","Opposite-sex_couple_022_v",36,2,4998,"green","Reality",1,2,3,1,1,1181,1,"Female","Heterosexual"
"S040","Male_023_v",37,2,5682,"green","Reality",1,2,3,1,1,2061,2,"Female","Heterosexual"
"S040","Opposite-sex_couple_012_h",38,2,5593,"blue","Fiction",2,2,3,1,1,2403,1,"Female","Heterosexual"
"S040","Opposite-sex_couple_002_h",39,2,4491,"green","Reality",4,5,4,1,1,1360,-1,"Female","Heterosexual"
"S040","Male_020_v",40,2,4540,"blue","Fiction",1,2,3,1,1,1739,-1,"Female","Heterosexual"
"S040","Opposite-sex_couple_024_h",41,2,3892,"green","Reality",4,4,4,1,1,2991,1,"Female","Heterosexual"
"S040","Opposite-sex_couple_023_h",42,2,6469,"blue","Fiction",1,2,3,1,1,1245,-3,"Female","Heterosexual"
"S040","Opposite-sex_couple_015_h",43,2,3877,"blue","Fiction",3,4,3,1,1,1915,-1,"Female","Heterosexual"
"S040","Opposite-sex_couple_033_v",44,2,5500,"blue","Fiction",3,4,4,1,1,1397,1,"Female","Heterosexual"
"S040","Male_024_h",45,2,5972,"green","Reality",2,2,3,1,1,1676,-1,"Female","Heterosexual"
"S040","Opposite-sex_couple_009_h",46,2,6153,"blue","Fiction",2,2,3,1,1,1759,2,"Female","Heterosexual"
"S040","Opposite-sex_couple_011_h",47,2,4471,"green","Reality",1,2,3,1,1,1666,1,"Female","Heterosexual"
"S040","Opposite-sex_couple_008_h",48,2,8959,"green","Reality",3,4,4,1,1,1105,2,"Female","Heterosexual"
"S040","Male_006_v",49,2,4947,"blue","Fiction",0,0,3,1,1,1177,2,"Female","Heterosexual"
"S040","Male_003_v",50,2,5766,"blue","Fiction",1,1,3,1,1,2110,1,"Female","Heterosexual"
"S031","Opposite-sex_couple_017_v",1,2,15809,"green","Reality",4,5,4,1,1,2712,2,"Female","Heterosexual"
"S031","Opposite-sex_couple_018_h",2,2,14160,"green","Reality",5,5,5,1,1,1981,2,"Female","Heterosexual"
"S031","Male_001_v",3,2,7836,"green","Reality",0,0,0,1,1,3223,-2,"Female","Heterosexual"
"S031","Male_009_v",4,2,12350,"green","Reality",3,3,3,1,1,1414,3,"Female","Heterosexual"
"S031","Male_003_v",5,2,12346,"green","Reality",3,5,3,1,1,4444,3,"Female","Heterosexual"
"S031","Opposite-sex_couple_022_v",6,2,7984,"green","Reality",5,5,4,1,1,2573,-3,"Female","Heterosexual"
"S031","Opposite-sex_couple_012_h",7,2,8017,"red","Fiction",6,6,6,1,1,5719,3,"Female","Heterosexual"
"S031","Male_013_v",8,2,12229,"green","Reality",1,1,2,1,1,3971,0,"Female","Heterosexual"
"S031","Opposite-sex_couple_023_h",9,2,5249,"red","Fiction",5,5,5,1,1,4183,3,"Female","Heterosexual"
"S031","Male_015_v",10,2,7956,"red","Fiction",1,1,1,1,1,1562,3,"Female","Heterosexual"
"S031","Male_011_v",11,2,4050,"red","Fiction",0,0,0,1,1,2553,-3,"Female","Heterosexual"
"S031","Male_007_h",12,2,5621,"red","Fiction",0,0,0,1,1,3926,1,"Female","Heterosexual"
"S031","Opposite-sex_couple_047_v",13,2,7160,"green","Reality",3,3,2,1,1,1798,3,"Female","Heterosexual"
"S031","Opposite-sex_couple_009_h",14,2,4566,"green","Reality",5,5,5,1,1,1681,2,"Female","Heterosexual"
"S031","Opposite-sex_couple_005_h",15,2,5262,"red","Fiction",6,6,6,1,1,4100,2,"Female","Heterosexual"
"S031","Opposite-sex_couple_042_h",16,2,4454,"red","Fiction",4,4,6,1,1,2045,2,"Female","Heterosexual"
"S031","Opposite-sex_couple_013_h",17,2,4407,"green","Reality",0,0,0,1,1,1321,-3,"Female","Heterosexual"
"S031","Male_012_h",18,2,5885,"green","Reality",3,5,4,1,1,2164,3,"Female","Heterosexual"
"S031","Opposite-sex_couple_048_h",19,2,4983,"green","Reality",5,5,4,1,1,7768,0,"Female","Heterosexual"
"S031","Opposite-sex_couple_014_h",20,2,7553,"green","Reality",5,6,5,1,1,4069,0,"Female","Heterosexual"
"S031","Opposite-sex_couple_016_v",21,2,6148,"green","Reality",3,5,4,1,1,1663,2,"Female","Heterosexual"
"S031","Opposite-sex_couple_035_h",22,2,6911,"red","Fiction",5,5,5,1,1,5599,3,"Female","Heterosexual"
"S031","Male_019_h",23,2,5186,"green","Reality",0,0,0,1,1,2751,3,"Female","Heterosexual"
"S031","Male_021_h",24,2,5954,"green","Reality",2,5,4,1,1,2305,-3,"Female","Heterosexual"
"S031","Male_018_v",25,2,14398,"green","Reality",0,1,3,1,1,3252,0,"Female","Heterosexual"
"S031","Male_016_v",26,2,6674,"red","Fiction",0,0,0,1,1,1796,3,"Female","Heterosexual"
"S031","Opposite-sex_couple_024_h",27,2,7333,"red","Fiction",3,5,5,1,1,3128,2,"Female","Heterosexual"
"S031","Male_006_v",28,2,4641,"red","Fiction",0,0,0,1,1,3583,-2,"Female","Heterosexual"
"S031","Opposite-sex_couple_020_h",29,2,5337,"red","Fiction",5,5,5,1,1,2373,2,"Female","Heterosexual"
"S031","Opposite-sex_couple_019_v",30,2,11878,"green","Reality",2,6,6,1,1,1863,3,"Female","Heterosexual"
"S031","Male_025_v",31,2,15292,"red","Fiction",2,2,2,1,1,3178,-1,"Female","Heterosexual"
"S031","Male_008_v",32,2,4284,"green","Reality",0,0,0,1,1,2686,-3,"Female","Heterosexual"
"S031","Male_004_v",33,2,8383,"green","Reality",1,1,1,1,1,1990,3,"Female","Heterosexual"
"S031","Male_020_v",34,2,9490,"green","Reality",3,3,3,1,1,1955,-3,"Female","Heterosexual"
"S031","Opposite-sex_couple_008_h",35,2,4946,"green","Reality",5,5,5,1,1,2337,2,"Female","Heterosexual"
"S031","Opposite-sex_couple_002_h",36,2,4055,"red","Fiction",6,6,6,1,1,1738,2,"Female","Heterosexual"
"S031","Male_022_v",37,2,4226,"red","Fiction",0,0,0,1,1,1698,-3,"Female","Heterosexual"
"S031","Male_005_v",38,2,4602,"red","Fiction",0,0,0,1,1,1755,-3,"Female","Heterosexual"
"S031","Opposite-sex_couple_025_h",39,2,4328,"green","Reality",6,6,6,1,1,1632,3,"Female","Heterosexual"
"S031","Male_010_v",40,2,11538,"green","Reality",0,0,3,1,1,2536,2,"Female","Heterosexual"
"S031","Male_017_v",41,2,3978,"red","Fiction",0,0,0,1,1,2653,2,"Female","Heterosexual"
"S031","Opposite-sex_couple_033_v",42,2,4231,"red","Fiction",5,5,5,1,1,1705,2,"Female","Heterosexual"
"S031","Male_014_v",43,2,5160,"red","Fiction",0,0,0,1,1,3051,-3,"Female","Heterosexual"
"S031","Male_023_v",44,2,7731,"red","Fiction",1,2,3,1,1,2269,-2,"Female","Heterosexual"
"S031","Opposite-sex_couple_007_h",45,2,4721,"green","Reality",5,5,4,1,1,1706,3,"Female","Heterosexual"
"S031","Male_002_v",46,2,5668,"green","Reality",0,0,0,1,1,2776,-1,"Female","Heterosexual"
"S031","Opposite-sex_couple_015_h",47,2,5317,"red","Fiction",4,4,4,1,1,1822,3,"Female","Heterosexual"
"S031","Opposite-sex_couple_011_h",48,2,5303,"red","Fiction",4,5,5,1,1,1467,3,"Female","Heterosexual"
"S031","Opposite-sex_couple_001_v",49,2,5768,"red","Fiction",5,5,5,1,1,5336,3,"Female","Heterosexual"
"S031","Male_024_h",50,2,5910,"red","Fiction",3,5,5,1,1,1936,3,"Female","Heterosexual"
"S176","Opposite-sex_couple_013_h",1,2,7167,"blue","Fiction",3,4,3,1,1,1362,2,"Male","Heterosexual"
"S176","Opposite-sex_couple_019_v",2,2,6368,"blue","Fiction",2,3,4,1,1,1707,3,"Male","Heterosexual"
"S176","Female_004_v",3,2,4586,"blue","Fiction",3,4,3,1,1,1839,3,"Male","Heterosexual"
"S176","Female_005_v",4,2,5551,"blue","Fiction",4,5,3,1,1,774,2,"Male","Heterosexual"
"S176","Opposite-sex_couple_022_v",5,2,4614,"green","Reality",3,3,3,1,1,981,3,"Male","Heterosexual"
"S176","Female_013_h",6,2,6190,"green","Reality",3,3,3,1,1,1971,3,"Male","Heterosexual"
"S176","Opposite-sex_couple_025_h",7,2,5220,"green","Reality",4,5,4,1,1,1812,2,"Male","Heterosexual"
"S176","Female_022_h",8,2,5116,"green","Reality",4,5,4,1,1,1751,3,"Male","Heterosexual"
"S176","Female_001_h",9,2,4141,"green","Reality",3,4,3,1,1,3986,2,"Male","Heterosexual"
"S176","Female_007_v",10,2,5327,"blue","Fiction",3,4,3,1,1,2637,-1,"Male","Heterosexual"
"S176","Female_009_h",11,2,5101,"green","Reality",4,4,4,1,1,946,2,"Male","Heterosexual"
"S176","Female_021_h",12,2,6425,"green","Reality",5,5,4,1,1,883,-2,"Male","Heterosexual"
"S176","Female_008_v",13,2,4481,"blue","Fiction",4,4,3,1,1,1386,-2,"Male","Heterosexual"
"S176","Opposite-sex_couple_020_h",14,2,4721,"blue","Fiction",4,4,4,1,1,1388,-2,"Male","Heterosexual"
"S176","Opposite-sex_couple_005_h",15,2,5000,"blue","Fiction",5,5,4,1,1,1582,3,"Male","Heterosexual"
"S176","Opposite-sex_couple_023_h",16,2,3651,"green","Reality",5,5,5,1,1,2031,2,"Male","Heterosexual"
"S176","Female_017_v",17,2,4358,"blue","Fiction",4,4,4,1,1,1723,3,"Male","Heterosexual"
"S176","Opposite-sex_couple_024_h",18,2,4639,"green","Reality",4,5,4,1,1,1229,-2,"Male","Heterosexual"
"S176","Female_020_v",19,2,5911,"green","Reality",5,5,4,1,1,1939,2,"Male","Heterosexual"
"S176","Opposite-sex_couple_047_v",20,2,3406,"blue","Fiction",4,4,4,1,1,1548,1,"Male","Heterosexual"
"S176","Opposite-sex_couple_001_v",21,2,3782,"blue","Fiction",4,5,4,1,1,1625,-1,"Male","Heterosexual"
"S176","Opposite-sex_couple_014_h",22,2,4666,"blue","Fiction",5,6,5,1,1,1244,3,"Male","Heterosexual"
"S176","Opposite-sex_couple_035_h",23,2,3629,"green","Reality",4,4,4,1,1,2488,2,"Male","Heterosexual"
"S176","Opposite-sex_couple_048_h",24,2,5443,"green","Reality",4,4,4,1,1,1456,2,"Male","Heterosexual"
"S176","Female_003_v",25,2,4376,"blue","Fiction",4,5,4,1,1,1787,-1,"Male","Heterosexual"
"S176","Opposite-sex_couple_018_h",26,2,4454,"blue","Fiction",5,6,5,1,1,1584,-1,"Male","Heterosexual"
"S176","Female_012_v",27,2,3097,"green","Reality",4,5,4,1,1,2102,3,"Male","Heterosexual"
"S176","Opposite-sex_couple_007_h",28,2,3272,"green","Reality",4,5,4,1,1,1364,3,"Male","Heterosexual"
"S176","Opposite-sex_couple_011_h",29,2,4459,"blue","Fiction",4,5,4,1,1,3033,2,"Male","Heterosexual"
"S176","Female_024_v",30,2,4339,"blue","Fiction",4,5,4,1,1,1843,2,"Male","Heterosexual"
"S176","Opposite-sex_couple_012_h",31,2,3661,"green","Reality",5,6,5,1,1,1567,3,"Male","Heterosexual"
"S176","Opposite-sex_couple_015_h",32,2,6856,"green","Reality",4,5,4,1,1,963,2,"Male","Heterosexual"
"S176","Female_011_h",33,2,7445,"green","Reality",4,5,4,1,1,2788,-3,"Male","Heterosexual"
"S176","Female_006_v",34,2,4915,"green","Reality",4,5,4,1,1,2263,-1,"Male","Heterosexual"
"S176","Female_010_h",35,2,4632,"green","Reality",4,4,4,1,1,1326,3,"Male","Heterosexual"
"S176","Opposite-sex_couple_042_h",36,2,4688,"blue","Fiction",3,4,4,1,1,2039,3,"Male","Heterosexual"
"S176","Female_025_h",37,2,5320,"blue","Fiction",4,4,4,1,1,2029,-2,"Male","Heterosexual"
"S176","Female_002_h",38,2,4018,"green","Reality",4,5,4,1,1,3444,1,"Male","Heterosexual"
"S176","Female_023_h",39,2,5034,"blue","Fiction",5,6,5,1,1,1487,-2,"Male","Heterosexual"
"S176","Female_014_v",40,2,3465,"green","Reality",4,5,4,1,1,1757,-1,"Male","Heterosexual"
"S176","Female_019_h",41,2,2955,"green","Reality",4,4,4,1,1,916,2,"Male","Heterosexual"
"S176","Female_018_h",42,2,4029,"blue","Fiction",5,6,5,1,1,1915,-1,"Male","Heterosexual"
"S176","Opposite-sex_couple_008_h",43,2,3660,"blue","Fiction",5,6,5,1,1,1319,2,"Male","Heterosexual"
"S176","Opposite-sex_couple_017_v",44,2,2851,"green","Reality",4,5,4,1,1,3593,3,"Male","Heterosexual"
"S176","Female_016_h",45,2,2894,"blue","Fiction",4,4,4,1,1,2588,-1,"Male","Heterosexual"
"S176","Opposite-sex_couple_016_v",46,2,7124,"green","Reality",4,5,5,1,1,2865,1,"Male","Heterosexual"
"S176","Opposite-sex_couple_009_h",47,2,4740,"green","Reality",5,6,5,1,1,2566,-2,"Male","Heterosexual"
"S176","Female_015_v",48,2,3724,"blue","Fiction",4,5,4,1,1,1027,3,"Male","Heterosexual"
"S176","Opposite-sex_couple_033_v",49,2,3549,"blue","Fiction",4,5,5,1,1,941,3,"Male","Heterosexual"
"S176","Opposite-sex_couple_002_h",50,2,20353,"green","Reality",4,5,4,1,1,819,2,"Male","Heterosexual"
"S067","Female_014_v",1,2,13461,"blue","Fiction",1,1,1,1,1,2552,-3,"Male","Heterosexual"
"S067","Opposite-sex_couple_023_h",2,2,6215,"green","Reality",5,5,5,1,1,1600,-3,"Male","Heterosexual"
"S067","Female_018_h",3,2,5625,"blue","Fiction",6,6,6,1,1,1172,3,"Male","Heterosexual"
"S067","Opposite-sex_couple_013_h",4,2,4899,"green","Reality",0,0,0,1,1,4068,3,"Male","Heterosexual"
"S067","Opposite-sex_couple_024_h",5,2,8549,"blue","Fiction",3,2,4,1,1,2183,2,"Male","Heterosexual"
"S067","Opposite-sex_couple_011_h",6,2,5458,"blue","Fiction",1,2,1,1,1,1796,-3,"Male","Heterosexual"
"S067","Opposite-sex_couple_047_v",7,2,4986,"green","Reality",0,0,0,1,1,1844,0,"Male","Heterosexual"
"S067","Opposite-sex_couple_017_v",8,2,5814,"blue","Fiction",2,2,2,1,1,1911,-3,"Male","Heterosexual"
"S067","Opposite-sex_couple_014_h",9,2,6647,"green","Reality",6,5,5,1,1,1253,3,"Male","Heterosexual"
"S067","Female_007_v",10,2,7107,"blue","Fiction",1,0,0,1,1,1522,-3,"Male","Heterosexual"
"S067","Female_013_h",11,2,5023,"green","Reality",6,6,6,1,1,1270,3,"Male","Heterosexual"
"S067","Opposite-sex_couple_009_h",12,2,5189,"green","Reality",6,6,6,1,1,1897,3,"Male","Heterosexual"
"S067","Opposite-sex_couple_001_v",13,2,6430,"green","Reality",0,0,0,1,1,3219,0,"Male","Heterosexual"
"S067","Opposite-sex_couple_042_h",14,2,6373,"blue","Fiction",0,0,0,1,1,1279,-3,"Male","Heterosexual"
"S067","Opposite-sex_couple_025_h",15,2,5719,"green","Reality",6,6,6,1,1,1873,3,"Male","Heterosexual"
"S067","Female_011_h",16,2,7905,"blue","Fiction",3,4,3,1,1,1563,-3,"Male","Heterosexual"
"S067","Opposite-sex_couple_015_h",17,2,5191,"green","Reality",1,1,0,1,1,1785,-3,"Male","Heterosexual"
"S067","Opposite-sex_couple_048_h",18,2,6934,"blue","Fiction",0,0,0,1,1,1819,0,"Male","Heterosexual"
"S067","Female_016_h",19,2,7385,"green","Reality",4,3,4,1,1,2072,1,"Male","Heterosexual"
"S067","Female_012_v",20,2,5188,"green","Reality",3,3,3,1,1,1591,-3,"Male","Heterosexual"
"S067","Opposite-sex_couple_035_h",21,2,5390,"blue","Fiction",0,0,0,1,1,1650,0,"Male","Heterosexual"
"S067","Female_006_v",22,2,5421,"green","Reality",6,6,6,1,1,1598,3,"Male","Heterosexual"
"S067","Opposite-sex_couple_019_v",23,2,5698,"green","Reality",0,2,2,1,1,1800,-3,"Male","Heterosexual"
"S067","Female_021_h",24,2,4902,"green","Reality",6,5,6,1,1,6927,0,"Male","Heterosexual"
"S067","Opposite-sex_couple_033_v",25,2,4607,"blue","Fiction",0,0,0,1,1,1271,3,"Male","Heterosexual"
"S067","Opposite-sex_couple_022_v",26,2,4638,"green","Reality",0,0,0,1,1,1677,0,"Male","Heterosexual"
"S067","Female_003_v",27,2,5804,"blue","Fiction",0,0,0,1,1,1192,-3,"Male","Heterosexual"
"S067","Opposite-sex_couple_020_h",28,2,4626,"blue","Fiction",2,2,2,1,1,1481,-3,"Male","Heterosexual"
"S067","Female_001_h",29,2,6533,"blue","Fiction",4,4,4,1,1,1370,3,"Male","Heterosexual"
"S067","Opposite-sex_couple_002_h",30,2,5193,"blue","Fiction",0,0,0,1,1,1800,-3,"Male","Heterosexual"
"S067","Female_002_h",31,2,5153,"blue","Fiction",6,6,6,1,1,2040,3,"Male","Heterosexual"
"S067","Female_023_h",32,2,4568,"green","Reality",4,4,4,1,1,1700,-3,"Male","Heterosexual"
"S067","Female_020_v",33,2,5423,"green","Reality",6,6,6,1,1,1675,3,"Male","Heterosexual"
"S067","Opposite-sex_couple_005_h",34,2,4995,"green","Reality",6,6,6,1,1,1379,3,"Male","Heterosexual"
"S067","Opposite-sex_couple_007_h",35,2,4925,"blue","Fiction",0,0,0,1,1,3959,0,"Male","Heterosexual"
"S067","Female_010_h",36,2,7270,"green","Reality",3,3,3,1,1,1625,-3,"Male","Heterosexual"
"S067","Opposite-sex_couple_012_h",37,2,4927,"green","Reality",5,6,6,1,1,1644,3,"Male","Heterosexual"
"S067","Female_025_h",38,2,4850,"green","Reality",3,3,3,1,1,1316,3,"Male","Heterosexual"
"S067","Female_022_h",39,2,5796,"green","Reality",6,6,6,1,1,1807,3,"Male","Heterosexual"
"S067","Female_008_v",40,2,5357,"blue","Fiction",6,6,6,1,1,1693,-3,"Male","Heterosexual"
"S067","Female_019_h",41,2,6857,"blue","Fiction",4,5,5,1,1,1783,0,"Male","Heterosexual"
"S067","Opposite-sex_couple_018_h",42,2,5047,"blue","Fiction",6,6,6,1,1,1865,3,"Male","Heterosexual"
"S067","Female_017_v",43,2,4933,"green","Reality",5,5,5,1,1,2345,0,"Male","Heterosexual"
"S067","Opposite-sex_couple_016_v",44,2,4539,"green","Reality",2,2,2,1,1,1909,2,"Male","Heterosexual"
"S067","Opposite-sex_couple_008_h",45,2,4473,"blue","Fiction",4,4,4,1,1,1144,-3,"Male","Heterosexual"
"S067","Female_005_v",46,2,4826,"blue","Fiction",2,2,2,1,1,1683,3,"Male","Heterosexual"
"S067","Female_004_v",47,2,5796,"green","Reality",1,1,1,1,1,1964,-3,"Male","Heterosexual"
"S067","Female_009_h",48,2,4529,"green","Reality",5,5,5,1,1,1784,3,"Male","Heterosexual"
"S067","Female_015_v",49,2,4412,"blue","Fiction",1,1,1,1,1,1471,-3,"Male","Heterosexual"
"S067","Female_024_v",50,2,4970,"blue","Fiction",1,1,1,1,1,1479,-3,"Male","Heterosexual"
"S186","Female_024_v",1,2,10461,"blue","Reality",3,4,4,1,1,2170,3,"Male","Heterosexual"
"S186","Opposite-sex_couple_012_h",2,2,18481,"red","Fiction",5,5,4,1,1,1831,3,"Male","Heterosexual"
"S186","Opposite-sex_couple_001_v",3,2,11723,"blue","Reality",3,3,4,1,1,2508,-2,"Male","Heterosexual"
"S186","Female_013_h",4,2,10539,"red","Fiction",5,5,4,1,1,2136,-3,"Male","Heterosexual"
"S186","Opposite-sex_couple_025_h",5,2,9499,"blue","Reality",6,6,6,1,1,3726,3,"Male","Heterosexual"
"S186","Opposite-sex_couple_002_h",6,2,6155,"red","Fiction",4,3,4,1,1,2211,3,"Male","Heterosexual"
"S186","Opposite-sex_couple_022_v",7,2,9236,"blue","Reality",4,4,4,1,1,2359,3,"Male","Heterosexual"
"S186","Female_003_v",8,2,10009,"blue","Reality",5,5,5,1,1,2617,-3,"Male","Heterosexual"
"S186","Opposite-sex_couple_033_v",9,2,10072,"red","Fiction",4,3,4,1,1,4382,-2,"Male","Heterosexual"
"S186","Opposite-sex_couple_009_h",10,2,6052,"blue","Reality",5,6,5,1,1,1977,-3,"Male","Heterosexual"
"S186","Female_020_v",11,2,11418,"blue","Reality",6,6,6,1,1,2646,-2,"Male","Heterosexual"
"S186","Opposite-sex_couple_020_h",12,2,9828,"red","Fiction",4,5,6,1,1,2321,3,"Male","Heterosexual"
"S186","Female_018_h",13,2,6832,"blue","Reality",6,6,6,1,1,2082,3,"Male","Heterosexual"
"S186","Opposite-sex_couple_007_h",14,2,6441,"blue","Reality",4,4,4,1,1,2010,3,"Male","Heterosexual"
"S186","Female_001_h",15,2,9451,"red","Fiction",4,4,3,1,1,3180,-2,"Male","Heterosexual"
"S186","Female_025_h",16,2,6103,"red","Fiction",4,5,4,1,1,2217,-3,"Male","Heterosexual"
"S186","Opposite-sex_couple_035_h",17,2,9989,"blue","Reality",4,4,5,1,1,2395,-3,"Male","Heterosexual"
"S186","Opposite-sex_couple_047_v",18,2,9087,"red","Fiction",4,5,5,1,1,2204,3,"Male","Heterosexual"
"S186","Opposite-sex_couple_048_h",19,2,5614,"red","Fiction",4,4,4,1,1,1941,3,"Male","Heterosexual"
"S186","Female_012_v",20,2,6947,"blue","Reality",5,6,5,1,1,2175,3,"Male","Heterosexual"
"S186","Female_010_h",21,2,4960,"red","Fiction",6,6,6,1,1,2230,3,"Male","Heterosexual"
"S186","Opposite-sex_couple_023_h",22,2,4970,"blue","Reality",6,5,5,1,1,3308,1,"Male","Heterosexual"
"S186","Female_005_v",23,2,5028,"blue","Reality",5,5,5,1,1,1919,3,"Male","Heterosexual"
"S186","Female_017_v",24,2,5907,"red","Fiction",4,5,4,1,1,5163,-2,"Male","Heterosexual"
"S186","Female_006_v",25,2,4585,"blue","Reality",5,5,5,1,1,2247,-3,"Male","Heterosexual"
"S186","Female_008_v",26,2,5497,"red","Fiction",5,5,5,1,1,2106,3,"Male","Heterosexual"
"S186","Opposite-sex_couple_011_h",27,2,4294,"red","Fiction",5,5,5,1,1,2383,3,"Male","Heterosexual"
"S186","Opposite-sex_couple_017_v",28,2,5371,"red","Fiction",6,5,5,1,1,2803,3,"Male","Heterosexual"
"S186","Opposite-sex_couple_019_v",29,2,4478,"red","Fiction",4,4,4,1,1,2138,3,"Male","Heterosexual"
"S186","Female_016_h",30,2,4548,"blue","Reality",3,3,3,1,1,1942,-3,"Male","Heterosexual"
"S186","Opposite-sex_couple_014_h",31,2,6908,"blue","Reality",3,3,3,1,1,2300,3,"Male","Heterosexual"
"S186","Female_002_h",32,2,4528,"red","Fiction",6,6,6,1,1,2304,3,"Male","Heterosexual"
"S186","Female_004_v",33,2,6699,"red","Fiction",5,5,5,1,1,1408,3,"Male","Heterosexual"
"S186","Female_022_h",34,2,5796,"red","Fiction",6,6,6,1,1,1828,3,"Male","Heterosexual"
"S186","Opposite-sex_couple_008_h",35,2,5087,"blue","Reality",6,6,6,1,1,3077,2,"Male","Heterosexual"
"S186","Opposite-sex_couple_024_h",36,2,4611,"blue","Reality",6,6,6,1,1,2284,3,"Male","Heterosexual"
"S186","Female_009_h",37,2,5540,"red","Fiction",5,4,5,1,1,2947,-3,"Male","Heterosexual"
"S186","Female_021_h",38,2,6623,"blue","Reality",6,6,6,1,1,2915,3,"Male","Heterosexual"
"S186","Opposite-sex_couple_016_v",39,2,6962,"red","Fiction",4,5,6,1,1,1902,3,"Male","Heterosexual"
"S186","Female_023_h",40,2,7591,"blue","Reality",5,6,5,1,1,2665,3,"Male","Heterosexual"
"S186","Opposite-sex_couple_013_h",41,2,4770,"red","Fiction",5,6,6,1,1,3336,3,"Male","Heterosexual"
"S186","Female_015_v",42,2,8917,"blue","Reality",4,4,5,1,1,2789,-3,"Male","Heterosexual"
"S186","Opposite-sex_couple_018_h",43,2,5520,"red","Fiction",6,6,6,1,1,2478,3,"Male","Heterosexual"
"S186","Female_007_v",44,2,8770,"red","Fiction",5,5,5,1,1,2889,-3,"Male","Heterosexual"
"S186","Female_019_h",45,2,7598,"red","Fiction",4,5,5,1,1,2274,3,"Male","Heterosexual"
"S186","Opposite-sex_couple_042_h",46,2,5566,"blue","Reality",4,4,4,1,1,5970,-1,"Male","Heterosexual"
"S186","Opposite-sex_couple_005_h",47,2,6875,"blue","Reality",6,6,6,1,1,1891,3,"Male","Heterosexual"
"S186","Female_011_h",48,2,5344,"blue","Reality",5,6,5,1,1,3053,0,"Male","Heterosexual"
"S186","Opposite-sex_couple_015_h",49,2,7840,"blue","Reality",5,5,5,1,1,3337,-1,"Male","Heterosexual"
"S186","Female_014_v",50,2,4960,"blue","Reality",6,6,6,1,1,2882,-1,"Male","Heterosexual"
"S072","Opposite-sex_couple_033_v",1,2,17366,"red","Reality",3,5,4,1,1,7801,-2,"Female","Bisexual"
"S072","Female_015_v",2,2,6840,"blue","Fiction",4,5,4,1,1,1631,2,"Female","Bisexual"
"S072","Female_013_h",3,2,6743,"red","Reality",4,4,4,1,1,2086,-1,"Female","Bisexual"
"S072","Female_017_v",4,2,7862,"blue","Fiction",3,3,4,1,1,3008,0,"Female","Bisexual"
"S072","Female_018_h",5,2,9034,"red","Reality",5,4,5,1,1,2382,-1,"Female","Bisexual"
"S072","Opposite-sex_couple_008_h",6,2,6552,"blue","Fiction",5,5,5,1,1,2410,2,"Female","Bisexual"
"S072","Female_010_h",7,2,7027,"blue","Fiction",3,3,3,1,1,1695,-1,"Female","Bisexual"
"S072","Opposite-sex_couple_047_v",8,2,6758,"blue","Fiction",3,3,3,1,1,1969,-1,"Female","Bisexual"
"S072","Opposite-sex_couple_007_h",9,2,5193,"red","Reality",3,3,3,1,1,1384,2,"Female","Bisexual"
"S072","Opposite-sex_couple_035_h",10,2,10174,"red","Reality",3,4,3,1,1,2470,1,"Female","Bisexual"
"S072","Female_001_h",11,2,7015,"blue","Fiction",4,4,4,1,1,3336,-1,"Female","Bisexual"
"S072","Opposite-sex_couple_016_v",12,2,5784,"blue","Fiction",4,4,4,1,1,2244,1,"Female","Bisexual"
"S072","Female_006_v",13,2,5574,"red","Reality",3,3,3,1,1,1550,1,"Female","Bisexual"
"S072","Female_008_v",14,2,5692,"blue","Fiction",3,3,3,1,1,2051,-1,"Female","Bisexual"
"S072","Female_014_v",15,2,6163,"blue","Fiction",4,5,4,1,1,1340,1,"Female","Bisexual"
"S072","Female_007_v",16,2,6654,"red","Reality",3,2,3,1,1,3945,1,"Female","Bisexual"
"S072","Opposite-sex_couple_009_h",17,2,5532,"blue","Fiction",4,4,4,1,1,1890,1,"Female","Bisexual"
"S072","Female_002_h",18,2,7470,"red","Reality",5,4,4,1,1,2518,3,"Female","Bisexual"
"S072","Opposite-sex_couple_023_h",19,2,6563,"red","Reality",5,4,3,1,1,2400,1,"Female","Bisexual"
"S072","Opposite-sex_couple_014_h",20,2,7184,"red","Reality",6,5,5,1,1,2503,2,"Female","Bisexual"
"S072","Female_004_v",21,2,5007,"red","Reality",4,3,3,1,1,2105,0,"Female","Bisexual"
"S072","Opposite-sex_couple_020_h",22,2,5453,"red","Reality",4,4,4,1,1,1659,2,"Female","Bisexual"
"S072","Opposite-sex_couple_025_h",23,2,5362,"blue","Fiction",6,6,6,1,1,2840,1,"Female","Bisexual"
"S072","Female_016_h",24,2,5361,"blue","Fiction",4,5,5,1,1,1896,-1,"Female","Bisexual"
"S072","Female_024_v",25,2,4914,"red","Reality",3,3,2,1,1,2086,0,"Female","Bisexual"
"S072","Opposite-sex_couple_001_v",26,2,4875,"red","Reality",3,3,3,1,1,2614,3,"Female","Bisexual"
"S072","Opposite-sex_couple_048_h",27,2,5412,"red","Reality",4,4,4,1,1,2568,1,"Female","Bisexual"
"S072","Opposite-sex_couple_019_v",28,2,5472,"blue","Fiction",3,4,4,1,1,2137,-1,"Female","Bisexual"
"S072","Female_009_h",29,2,6426,"red","Reality",5,4,5,1,1,2535,0,"Female","Bisexual"
"S072","Opposite-sex_couple_042_h",30,2,4919,"blue","Fiction",3,3,3,1,1,3596,2,"Female","Bisexual"
"S072","Female_003_v",31,2,5389,"red","Reality",3,4,3,1,1,1296,-1,"Female","Bisexual"
"S072","Opposite-sex_couple_002_h",32,2,5947,"blue","Fiction",5,5,4,1,1,3604,2,"Female","Bisexual"
"S072","Female_021_h",33,2,5572,"blue","Fiction",5,5,5,1,1,4089,-2,"Female","Bisexual"
"S072","Female_011_h",34,2,5761,"red","Reality",3,3,2,1,1,1592,-1,"Female","Bisexual"
"S072","Female_020_v",35,2,5721,"blue","Fiction",5,4,5,1,1,1667,1,"Female","Bisexual"
"S072","Female_022_h",36,2,9016,"red","Reality",5,6,4,1,1,2028,-3,"Female","Bisexual"
"S072","Opposite-sex_couple_018_h",37,2,5443,"red","Reality",6,6,6,1,1,2844,3,"Female","Bisexual"
"S072","Female_005_v",38,2,5984,"red","Reality",4,4,5,1,1,1553,1,"Female","Bisexual"
"S072","Opposite-sex_couple_012_h",39,2,5533,"blue","Fiction",5,5,5,1,1,2651,2,"Female","Bisexual"
"S072","Opposite-sex_couple_011_h",40,2,5227,"red","Reality",4,3,3,1,1,2483,2,"Female","Bisexual"
"S072","Opposite-sex_couple_015_h",41,2,6170,"blue","Fiction",4,4,4,1,1,1596,1,"Female","Bisexual"
"S072","Female_025_h",42,2,9431,"blue","Fiction",4,3,4,1,1,2435,-1,"Female","Bisexual"
"S072","Opposite-sex_couple_013_h",43,2,4880,"blue","Fiction",4,3,3,1,1,2446,-1,"Female","Bisexual"
"S072","Opposite-sex_couple_022_v",44,2,4604,"red","Reality",3,3,3,1,1,2054,-1,"Female","Bisexual"
"S072","Female_019_h",45,2,5185,"red","Reality",4,3,3,1,1,1366,-1,"Female","Bisexual"
"S072","Opposite-sex_couple_024_h",46,2,5078,"red","Reality",5,4,4,1,1,3957,0,"Female","Bisexual"
"S072","Opposite-sex_couple_017_v",47,2,5305,"red","Reality",4,4,3,1,1,1121,0,"Female","Bisexual"
"S072","Female_012_v",48,2,4569,"blue","Fiction",3,3,4,1,1,1884,2,"Female","Bisexual"
"S072","Female_023_h",49,2,7407,"blue","Fiction",5,5,5,1,1,1614,1,"Female","Bisexual"
"S072","Opposite-sex_couple_005_h",50,2,7734,"blue","Fiction",6,6,6,1,1,2544,3,"Female","Bisexual"
"S201","Opposite-sex_couple_009_h",1,2,12840,"red","Reality",2,2,2,1,1,2415,1,"Male","Heterosexual"
"S201","Female_003_v",2,2,5805,"green","Fiction",3,3,2,1,1,1836,0,"Male","Heterosexual"
"S201","Female_016_h",3,2,5231,"red","Reality",1,1,2,1,1,4250,0,"Male","Heterosexual"
"S201","Opposite-sex_couple_022_v",4,2,5188,"red","Reality",1,2,1,1,1,2582,-1,"Male","Heterosexual"
"S201","Female_012_v",5,2,5938,"green","Fiction",2,1,2,1,1,10426,1,"Male","Heterosexual"
"S201","Opposite-sex_couple_013_h",6,2,6099,"red","Reality",0,0,0,1,1,2296,1,"Male","Heterosexual"
"S201","Female_001_h",7,2,7287,"green","Fiction",2,2,1,1,1,1479,-2,"Male","Heterosexual"
"S201","Opposite-sex_couple_047_v",8,2,2917,"red","Reality",1,2,1,1,1,1538,0,"Male","Heterosexual"
"S201","Opposite-sex_couple_008_h",9,2,4305,"red","Reality",3,2,4,1,1,1743,-1,"Male","Heterosexual"
"S201","Opposite-sex_couple_023_h",10,2,6794,"green","Fiction",2,2,2,1,1,13370,0,"Male","Heterosexual"
"S201","Opposite-sex_couple_042_h",11,2,2687,"green","Fiction",1,2,1,1,1,6378,-1,"Male","Heterosexual"
"S201","Female_006_v",12,2,5654,"red","Reality",3,2,3,1,1,3936,-1,"Male","Heterosexual"
"S201","Opposite-sex_couple_015_h",13,2,2889,"red","Reality",3,2,2,1,1,1535,-1,"Male","Heterosexual"
"S201","Female_023_h",14,2,7510,"red","Reality",2,3,2,1,1,3247,-1,"Male","Heterosexual"
"S201","Opposite-sex_couple_020_h",15,2,3117,"green","Fiction",1,2,2,1,1,1589,-2,"Male","Heterosexual"
"S201","Female_009_h",16,2,3810,"red","Reality",3,2,2,1,1,4432,-1,"Male","Heterosexual"
"S201","Opposite-sex_couple_035_h",17,2,2595,"green","Fiction",2,2,2,1,1,1549,0,"Male","Heterosexual"
"S201","Opposite-sex_couple_012_h",18,2,4582,"green","Fiction",2,2,2,1,1,1630,-1,"Male","Heterosexual"
"S201","Opposite-sex_couple_011_h",19,2,3229,"red","Reality",3,2,3,1,1,1508,-1,"Male","Heterosexual"
"S201","Opposite-sex_couple_001_v",20,2,9768,"green","Fiction",2,3,3,1,1,1516,-2,"Male","Heterosexual"
"S201","Female_010_h",21,2,7875,"red","Reality",4,4,2,1,1,1619,1,"Male","Heterosexual"
"S201","Female_021_h",22,2,3300,"green","Fiction",3,2,3,1,1,1810,1,"Male","Heterosexual"
"S201","Opposite-sex_couple_018_h",23,2,3126,"green","Fiction",3,2,2,1,1,2279,-1,"Male","Heterosexual"
"S201","Female_024_v",24,2,6726,"green","Fiction",3,2,2,1,1,1409,-2,"Male","Heterosexual"
"S201","Opposite-sex_couple_025_h",25,2,3144,"green","Fiction",3,2,2,1,1,1232,2,"Male","Heterosexual"
"S201","Opposite-sex_couple_019_v",26,2,6615,"green","Fiction",1,1,2,1,1,9303,-1,"Male","Heterosexual"
"S201","Female_022_h",27,2,8069,"red","Reality",3,3,4,1,1,1461,-1,"Male","Heterosexual"
"S201","Female_017_v",28,2,4461,"red","Reality",2,2,3,1,1,1281,-1,"Male","Heterosexual"
"S201","Female_011_h",29,2,3221,"green","Fiction",2,2,3,1,1,1732,2,"Male","Heterosexual"
"S201","Female_013_h",30,2,3297,"red","Reality",1,2,3,1,1,1446,-2,"Male","Heterosexual"
"S201","Female_014_v",31,2,4660,"red","Reality",3,4,5,1,1,2932,-1,"Male","Heterosexual"
"S201","Opposite-sex_couple_048_h",32,2,3283,"green","Fiction",2,3,2,1,1,1641,2,"Male","Heterosexual"
"S201","Opposite-sex_couple_002_h",33,2,3090,"red","Reality",3,2,3,1,1,1147,1,"Male","Heterosexual"
"S201","Opposite-sex_couple_014_h",34,2,4336,"green","Fiction",2,4,3,1,1,3487,2,"Male","Heterosexual"
"S201","Female_005_v",35,2,2704,"red","Reality",2,2,3,1,1,1874,-1,"Male","Heterosexual"
"S201","Female_007_v",36,2,4971,"green","Fiction",2,2,3,1,1,2254,2,"Male","Heterosexual"
"S201","Female_008_v",37,2,3798,"green","Fiction",1,1,2,1,1,7885,1,"Male","Heterosexual"
"S201","Female_018_h",38,2,5582,"red","Reality",3,2,2,1,1,1573,-1,"Male","Heterosexual"
"S201","Opposite-sex_couple_024_h",39,2,3385,"red","Reality",2,2,3,1,1,1522,1,"Male","Heterosexual"
"S201","Female_015_v",40,2,3242,"green","Fiction",3,2,2,1,1,1468,0,"Male","Heterosexual"
"S201","Female_025_h",41,2,2738,"red","Reality",2,2,4,1,1,1465,1,"Male","Heterosexual"
"S201","Female_019_h",42,2,2522,"red","Reality",2,3,3,1,1,1403,-2,"Male","Heterosexual"
"S201","Opposite-sex_couple_017_v",43,2,3648,"red","Reality",2,3,3,1,1,1659,0,"Male","Heterosexual"
"S201","Female_002_h",44,2,3282,"green","Fiction",1,2,3,1,1,1256,-1,"Male","Heterosexual"
"S201","Opposite-sex_couple_016_v",45,2,3628,"red","Reality",2,3,2,1,1,2550,-2,"Male","Heterosexual"
"S201","Female_020_v",46,2,2731,"green","Fiction",2,3,4,1,1,10616,1,"Male","Heterosexual"
"S201","Female_004_v",47,2,3141,"green","Fiction",2,2,2,1,1,1866,-1,"Male","Heterosexual"
"S201","Opposite-sex_couple_007_h",48,2,5843,"red","Reality",2,3,3,1,1,1225,-1,"Male","Heterosexual"
"S201","Opposite-sex_couple_005_h",49,2,3879,"red","Reality",2,2,2,1,1,1491,1,"Male","Heterosexual"
"S201","Opposite-sex_couple_033_v",50,2,4379,"green","Fiction",2,2,3,1,1,1609,2,"Male","Heterosexual"
"S008","Opposite-sex_couple_019_v",1,2,34494,"blue","Reality",2,4,5,1,1,4653,1,"Male","Heterosexual"
"S008","Opposite-sex_couple_007_h",2,2,9310,"green","Fiction",4,4,5,1,1,3226,-3,"Male","Heterosexual"
"S008","Female_022_h",3,2,9815,"green","Fiction",6,5,6,1,1,2351,-1,"Male","Heterosexual"
"S008","Opposite-sex_couple_042_h",4,2,8643,"green","Fiction",4,3,4,1,1,1898,2,"Male","Heterosexual"
"S008","Female_004_v",5,2,8427,"green","Fiction",4,3,5,1,1,1860,2,"Male","Heterosexual"
"S008","Female_013_h",6,2,8463,"blue","Reality",5,5,6,1,1,2900,-3,"Male","Heterosexual"
"S008","Female_006_v",7,2,5852,"green","Fiction",5,4,5,1,1,2225,2,"Male","Heterosexual"
"S008","Opposite-sex_couple_008_h",8,2,4797,"green","Fiction",6,5,6,1,1,2778,0,"Male","Heterosexual"
"S008","Female_007_v",9,2,6270,"blue","Reality",5,4,5,1,1,3138,2,"Male","Heterosexual"
"S008","Female_023_h",10,2,7524,"blue","Reality",4,4,5,1,1,3174,0,"Male","Heterosexual"
"S008","Female_018_h",11,2,6478,"green","Fiction",5,4,5,1,1,2572,1,"Male","Heterosexual"
"S008","Female_001_h",12,2,4877,"blue","Reality",6,5,6,1,1,2523,-1,"Male","Heterosexual"
"S008","Female_021_h",13,2,7488,"green","Fiction",5,5,6,1,1,2093,1,"Male","Heterosexual"
"S008","Female_015_v",14,2,6724,"blue","Reality",4,5,4,1,1,9213,1,"Male","Heterosexual"
"S008","Opposite-sex_couple_024_h",15,2,10443,"blue","Reality",6,5,6,1,1,2138,2,"Male","Heterosexual"
"S008","Female_024_v",16,2,5289,"green","Fiction",5,4,5,1,1,2033,0,"Male","Heterosexual"
"S008","Opposite-sex_couple_014_h",17,2,6407,"green","Fiction",6,5,6,1,1,4030,3,"Male","Heterosexual"
"S008","Opposite-sex_couple_020_h",18,2,7387,"blue","Reality",5,5,6,1,1,2128,2,"Male","Heterosexual"
"S008","Opposite-sex_couple_012_h",19,2,6461,"green","Fiction",6,4,6,1,1,2272,2,"Male","Heterosexual"
"S008","Opposite-sex_couple_016_v",20,2,8909,"green","Fiction",5,5,4,1,1,2246,1,"Male","Heterosexual"
"S008","Female_020_v",21,2,5793,"blue","Reality",5,4,5,1,1,2267,2,"Male","Heterosexual"
"S008","Female_011_h",22,2,5091,"blue","Reality",4,5,5,1,1,2794,1,"Male","Heterosexual"
"S008","Opposite-sex_couple_001_v",23,2,5178,"blue","Reality",4,5,4,1,1,1440,2,"Male","Heterosexual"
"S008","Opposite-sex_couple_035_h",24,2,5284,"blue","Reality",4,4,5,1,1,6010,1,"Male","Heterosexual"
"S008","Opposite-sex_couple_033_v",25,2,6311,"blue","Reality",5,5,4,1,1,1731,0,"Male","Heterosexual"
"S008","Opposite-sex_couple_025_h",26,2,8083,"green","Fiction",6,5,6,1,1,3071,0,"Male","Heterosexual"
"S008","Opposite-sex_couple_009_h",27,2,5553,"green","Fiction",6,5,6,1,1,2661,2,"Male","Heterosexual"
"S008","Female_008_v",28,2,6996,"blue","Reality",6,5,6,1,1,1819,1,"Male","Heterosexual"
"S008","Opposite-sex_couple_013_h",29,2,5312,"green","Fiction",5,4,6,1,1,1960,-1,"Male","Heterosexual"
"S008","Female_009_h",30,2,6987,"green","Fiction",6,5,5,1,1,1962,-1,"Male","Heterosexual"
"S008","Female_014_v",31,2,4159,"blue","Reality",4,5,4,1,1,1992,2,"Male","Heterosexual"
"S008","Opposite-sex_couple_047_v",32,2,5521,"green","Fiction",5,4,5,1,1,1620,1,"Male","Heterosexual"
"S008","Female_017_v",33,2,7417,"blue","Reality",6,5,5,1,1,2916,-1,"Male","Heterosexual"
"S008","Opposite-sex_couple_011_h",34,2,6987,"blue","Reality",6,5,6,1,1,5024,0,"Male","Heterosexual"
"S008","Female_003_v",35,2,11019,"green","Fiction",6,5,5,1,1,1769,2,"Male","Heterosexual"
"S008","Opposite-sex_couple_022_v",36,2,7743,"blue","Reality",5,4,6,1,1,3739,1,"Male","Heterosexual"
"S008","Female_010_h",37,2,5813,"green","Fiction",6,5,5,1,1,1910,-2,"Male","Heterosexual"
"S008","Female_002_h",38,2,4725,"blue","Reality",6,5,6,1,1,4611,-1,"Male","Heterosexual"
"S008","Female_012_v",39,2,5699,"green","Fiction",5,5,6,1,1,1922,-1,"Male","Heterosexual"
"S008","Opposite-sex_couple_002_h",40,2,5762,"blue","Reality",6,6,5,1,1,2243,2,"Male","Heterosexual"
"S008","Opposite-sex_couple_017_v",41,2,6608,"green","Fiction",6,5,5,1,1,1365,2,"Male","Heterosexual"
"S008","Female_005_v",42,2,7639,"green","Fiction",4,3,4,1,1,3765,2,"Male","Heterosexual"
"S008","Opposite-sex_couple_015_h",43,2,7094,"blue","Reality",5,5,6,1,1,2503,2,"Male","Heterosexual"
"S008","Opposite-sex_couple_018_h",44,2,8822,"green","Fiction",6,6,6,1,1,2405,1,"Male","Heterosexual"
"S008","Opposite-sex_couple_005_h",45,2,7078,"blue","Reality",6,6,6,1,1,7384,1,"Male","Heterosexual"
"S008","Female_025_h",46,2,4623,"green","Fiction",5,6,5,1,1,2001,-1,"Male","Heterosexual"
"S008","Opposite-sex_couple_048_h",47,2,5931,"blue","Reality",5,6,5,1,1,2233,2,"Male","Heterosexual"
"S008","Opposite-sex_couple_023_h",48,2,5559,"blue","Reality",6,6,6,1,1,2156,1,"Male","Heterosexual"
"S008","Female_019_h",49,2,4592,"blue","Reality",5,4,5,1,1,2299,2,"Male","Heterosexual"
"S008","Female_016_h",50,2,5212,"blue","Reality",4,6,3,1,1,1724,1,"Male","Heterosexual"
"S139","Opposite-sex_couple_005_h",1,2,5782,"red","Fiction",0,0,0,1,1,1420,-1,"Female","Heterosexual"
"S139","Male_019_h",2,2,13423,"green","Reality",2,2,3,1,1,1995,1,"Female","Heterosexual"
"S139","Opposite-sex_couple_019_v",3,2,5500,"green","Reality",0,0,6,1,1,1602,-1,"Female","Heterosexual"
"S139","Male_015_v",4,2,6996,"red","Fiction",2,3,3,1,1,1165,-1,"Female","Heterosexual"
"S139","Opposite-sex_couple_002_h",5,2,5227,"red","Fiction",2,4,4,1,1,2132,1,"Female","Heterosexual"
"S139","Opposite-sex_couple_023_h",6,2,11275,"green","Reality",1,1,2,1,1,2385,0,"Female","Heterosexual"
"S139","Opposite-sex_couple_016_v",7,2,3695,"green","Reality",0,0,3,1,1,926,-2,"Female","Heterosexual"
"S139","Opposite-sex_couple_015_h",8,2,14737,"green","Reality",1,4,4,1,1,1473,2,"Female","Heterosexual"
"S139","Opposite-sex_couple_007_h",9,2,3064,"red","Fiction",0,0,6,1,1,898,-2,"Female","Heterosexual"
"S139","Opposite-sex_couple_042_h",10,2,2768,"green","Reality",0,0,6,1,1,1050,2,"Female","Heterosexual"
"S139","Male_024_h",11,2,4095,"red","Fiction",3,4,4,1,1,2125,3,"Female","Heterosexual"
"S139","Male_020_v",12,2,3369,"green","Reality",0,0,2,1,1,960,-3,"Female","Heterosexual"
"S139","Male_021_h",13,2,8009,"red","Fiction",3,3,4,1,1,2262,3,"Female","Heterosexual"
"S139","Male_022_v",14,2,2749,"green","Reality",0,0,0,1,1,3452,-2,"Female","Heterosexual"
"S139","Male_002_v",15,2,4646,"green","Reality",0,0,2,1,1,883,2,"Female","Heterosexual"
"S139","Male_003_v",16,2,5626,"green","Reality",0,2,5,1,1,2066,2,"Female","Heterosexual"
"S139","Opposite-sex_couple_018_h",17,2,4013,"green","Reality",0,0,0,1,1,1146,-1,"Female","Heterosexual"
"S139","Male_013_v",18,2,3485,"red","Fiction",0,0,4,1,1,2000,1,"Female","Heterosexual"
"S139","Male_008_v",19,2,4114,"red","Fiction",0,0,1,1,1,925,-2,"Female","Heterosexual"
"S139","Male_023_v",20,2,4118,"green","Reality",1,3,4,1,1,1351,-2,"Female","Heterosexual"
"S139","Male_005_v",21,2,4590,"green","Reality",0,0,3,1,1,1356,-3,"Female","Heterosexual"
"S139","Male_004_v",22,2,8753,"green","Reality",0,0,1,1,1,1437,1,"Female","Heterosexual"
"S139","Male_007_h",23,2,2288,"green","Reality",0,0,0,1,1,1527,1,"Female","Heterosexual"
"S139","Opposite-sex_couple_048_h",24,2,3348,"green","Reality",1,2,3,1,1,1046,2,"Female","Heterosexual"
"S139","Opposite-sex_couple_017_v",25,2,5466,"red","Fiction",1,1,2,1,1,1164,-3,"Female","Heterosexual"
"S139","Male_011_v",26,2,12899,"green","Reality",0,2,3,1,1,878,-2,"Female","Heterosexual"
"S139","Opposite-sex_couple_009_h",27,2,5350,"green","Reality",0,3,3,1,1,1080,2,"Female","Heterosexual"
"S139","Male_025_v",28,2,5890,"red","Fiction",0,1,3,1,1,649,-2,"Female","Heterosexual"
"S139","Male_006_v",29,2,6621,"red","Fiction",0,4,3,1,1,1642,-3,"Female","Heterosexual"
"S139","Opposite-sex_couple_047_v",30,2,4314,"green","Reality",0,0,5,1,1,3758,2,"Female","Heterosexual"
"S139","Opposite-sex_couple_020_h",31,2,3697,"red","Fiction",0,4,4,1,1,1247,-3,"Female","Heterosexual"
"S139","Male_010_v",32,2,5120,"red","Fiction",0,3,3,1,1,989,-1,"Female","Heterosexual"
"S139","Male_018_v",33,2,6634,"red","Fiction",0,3,4,1,1,2887,-3,"Female","Heterosexual"
"S139","Opposite-sex_couple_012_h",34,2,8391,"green","Reality",0,0,0,1,1,1044,-3,"Female","Heterosexual"
"S139","Male_014_v",35,2,6631,"red","Fiction",0,3,3,1,1,853,-3,"Female","Heterosexual"
"S139","Opposite-sex_couple_035_h",36,2,2344,"green","Reality",0,0,6,1,1,1457,3,"Female","Heterosexual"
"S139","Opposite-sex_couple_014_h",37,2,6711,"red","Fiction",1,3,4,1,1,1097,2,"Female","Heterosexual"
"S139","Male_001_v",38,2,3508,"green","Reality",0,0,5,1,1,1421,-2,"Female","Heterosexual"
"S139","Male_012_h",39,2,3335,"green","Reality",0,1,3,1,1,1961,1,"Female","Heterosexual"
"S139","Opposite-sex_couple_001_v",40,2,3640,"green","Reality",0,2,4,1,1,841,-3,"Female","Heterosexual"
"S139","Opposite-sex_couple_022_v",41,2,2566,"green","Reality",0,1,3,1,1,1126,-2,"Female","Heterosexual"
"S139","Male_016_v",42,2,2987,"green","Reality",0,0,2,1,1,1635,2,"Female","Heterosexual"
"S139","Opposite-sex_couple_025_h",43,2,4684,"red","Fiction",0,0,3,1,1,2415,-1,"Female","Heterosexual"
"S139","Opposite-sex_couple_011_h",44,2,5342,"red","Fiction",0,0,4,1,1,1380,-1,"Female","Heterosexual"
"S139","Male_017_v",45,2,3705,"red","Fiction",0,2,3,1,1,1643,-3,"Female","Heterosexual"
"S139","Opposite-sex_couple_013_h",46,2,4541,"red","Fiction",0,0,2,1,1,1264,-2,"Female","Heterosexual"
"S139","Male_009_v",47,2,4603,"red","Fiction",2,5,5,1,1,908,1,"Female","Heterosexual"
"S139","Opposite-sex_couple_024_h",48,2,2628,"red","Fiction",0,0,3,1,1,972,-2,"Female","Heterosexual"
"S139","Opposite-sex_couple_008_h",49,2,7257,"red","Fiction",2,3,3,1,1,783,2,"Female","Heterosexual"
"S139","Opposite-sex_couple_033_v",50,2,2755,"red","Fiction",0,0,4,1,1,1435,2,"Female","Heterosexual"
"S129","Male_010_v",1,2,10871,"green","Reality",4,4,3,1,1,3878,-2,"Female","Heterosexual"
"S129","Male_003_v",2,2,4227,"red","Fiction",6,6,6,1,1,1315,3,"Female","Heterosexual"
"S129","Male_025_v",3,2,5668,"green","Reality",1,1,1,1,1,1919,1,"Female","Heterosexual"
"S129","Male_020_v",4,2,4887,"red","Fiction",4,4,2,1,1,1113,2,"Female","Heterosexual"
"S129","Male_002_v",5,2,5228,"green","Reality",3,3,3,1,1,1109,3,"Female","Heterosexual"
"S129","Male_013_v",6,2,3458,"green","Reality",3,3,3,1,1,1160,-3,"Female","Heterosexual"
"S129","Opposite-sex_couple_020_h",7,2,6343,"red","Fiction",1,1,1,1,1,1611,2,"Female","Heterosexual"
"S129","Male_006_v",8,2,4417,"green","Reality",2,2,2,1,1,1376,-3,"Female","Heterosexual"
"S129","Opposite-sex_couple_012_h",9,2,6750,"green","Reality",0,0,0,1,1,1127,-3,"Female","Heterosexual"
"S129","Male_022_v",10,2,3885,"red","Fiction",3,3,3,1,1,1235,-3,"Female","Heterosexual"
"S129","Opposite-sex_couple_017_v",11,2,4108,"green","Reality",2,2,2,1,1,1475,2,"Female","Heterosexual"
"S129","Opposite-sex_couple_013_h",12,2,4151,"red","Fiction",0,0,0,1,1,1476,1,"Female","Heterosexual"
"S129","Opposite-sex_couple_008_h",13,2,3568,"red","Fiction",3,3,3,1,1,1331,1,"Female","Heterosexual"
"S129","Opposite-sex_couple_001_v",14,2,4554,"green","Reality",3,2,2,1,1,1205,3,"Female","Heterosexual"
"S129","Opposite-sex_couple_011_h",15,2,3347,"green","Reality",0,0,0,1,1,1280,3,"Female","Heterosexual"
"S129","Opposite-sex_couple_023_h",16,2,7572,"red","Fiction",2,2,2,1,1,2804,-1,"Female","Heterosexual"
"S129","Male_004_v",17,2,3508,"red","Fiction",6,5,5,1,1,1222,2,"Female","Heterosexual"
"S129","Opposite-sex_couple_035_h",18,2,5013,"red","Fiction",1,1,1,1,1,13281,0,"Female","Heterosexual"
"S129","Opposite-sex_couple_048_h",19,2,3169,"red","Fiction",2,2,2,1,1,1461,2,"Female","Heterosexual"
"S129","Opposite-sex_couple_019_v",20,2,2534,"red","Fiction",0,0,0,1,1,1183,3,"Female","Heterosexual"
"S129","Opposite-sex_couple_016_v",21,2,2646,"green","Reality",3,3,3,1,1,1644,3,"Female","Heterosexual"
"S129","Male_017_v",22,2,4026,"green","Reality",0,0,0,1,1,14857,-1,"Female","Heterosexual"
"S129","Male_018_v",23,2,2524,"red","Fiction",1,1,1,1,1,1442,0,"Female","Heterosexual"
"S129","Opposite-sex_couple_014_h",24,2,3791,"green","Reality",1,1,1,1,1,1409,-3,"Female","Heterosexual"
"S129","Male_012_h",25,2,2606,"green","Reality",2,2,2,1,1,2549,0,"Female","Heterosexual"
"S129","Opposite-sex_couple_007_h",26,2,3687,"red","Fiction",2,2,1,1,1,1372,2,"Female","Heterosexual"
"S129","Male_015_v",27,2,3304,"red","Fiction",4,3,2,1,1,2993,-1,"Female","Heterosexual"
"S129","Male_016_v",28,2,3490,"red","Fiction",3,2,2,1,1,1129,0,"Female","Heterosexual"
"S129","Opposite-sex_couple_047_v",29,2,4809,"red","Fiction",2,2,1,1,1,1049,3,"Female","Heterosexual"
"S129","Male_005_v",30,2,4434,"green","Reality",3,2,1,1,1,1314,-2,"Female","Heterosexual"
"S129","Opposite-sex_couple_009_h",31,2,5013,"red","Fiction",2,1,1,1,1,1378,-1,"Female","Heterosexual"
"S129","Opposite-sex_couple_002_h",32,2,3297,"green","Reality",2,1,1,1,1,2959,1,"Female","Heterosexual"
"S129","Male_024_h",33,2,3189,"green","Reality",3,2,2,1,1,1268,-3,"Female","Heterosexual"
"S129","Male_019_h",34,2,2476,"green","Reality",0,0,0,1,1,30381,0,"Female","Heterosexual"
"S129","Opposite-sex_couple_015_h",35,2,3887,"green","Reality",2,2,2,1,1,1037,3,"Female","Heterosexual"
"S129","Male_023_v",36,2,2691,"green","Reality",6,5,5,1,1,1298,3,"Female","Heterosexual"
"S129","Male_014_v",37,2,3056,"red","Fiction",3,2,2,1,1,1402,-3,"Female","Heterosexual"
"S129","Male_007_h",38,2,2020,"green","Reality",0,0,0,1,1,1944,0,"Female","Heterosexual"
"S129","Opposite-sex_couple_005_h",39,2,3303,"green","Reality",3,2,2,1,1,1871,0,"Female","Heterosexual"
"S129","Male_011_v",40,2,2726,"red","Fiction",4,3,3,1,1,1399,-3,"Female","Heterosexual"
"S129","Opposite-sex_couple_025_h",41,2,4013,"red","Fiction",3,2,2,1,1,1510,-1,"Female","Heterosexual"
"S129","Opposite-sex_couple_018_h",42,2,3113,"green","Reality",2,1,1,1,1,1014,-3,"Female","Heterosexual"
"S129","Opposite-sex_couple_022_v",43,2,2526,"red","Fiction",3,3,3,1,1,1291,2,"Female","Heterosexual"
"S129","Male_009_v",44,2,5594,"green","Reality",5,5,5,1,1,5791,2,"Female","Heterosexual"
"S129","Opposite-sex_couple_042_h",45,2,3519,"green","Reality",3,3,3,1,1,1240,3,"Female","Heterosexual"
"S129","Opposite-sex_couple_033_v",46,2,4180,"green","Reality",4,3,3,1,1,1377,3,"Female","Heterosexual"
"S129","Male_001_v",47,2,5545,"red","Fiction",0,0,0,1,1,2109,2,"Female","Heterosexual"
"S129","Male_008_v",48,2,2702,"red","Fiction",3,2,2,1,1,1523,-2,"Female","Heterosexual"
"S129","Opposite-sex_couple_024_h",49,2,5024,"green","Reality",3,2,2,1,1,2529,-3,"Female","Heterosexual"
"S129","Male_021_h",50,2,2729,"red","Fiction",4,3,3,1,1,2371,3,"Female","Heterosexual"
"S049","Female_020_v",1,2,15825,"green","Reality",5,5,3,1,1,2044,2,"Female","Homosexual"
"S049","Female_023_h",2,2,4512,"blue","Fiction",3,3,3,1,1,1224,-2,"Female","Homosexual"
"S049","Female_002_h",3,2,4509,"green","Reality",5,5,5,1,1,1206,-3,"Female","Homosexual"
"S049","Female_007_v",4,2,4547,"blue","Fiction",1,1,1,1,1,1570,-2,"Female","Homosexual"
"S049","Female_018_h",5,2,3657,"green","Reality",5,5,5,1,1,6245,3,"Female","Homosexual"
"S049","Female_019_h",6,2,4046,"green","Reality",4,4,4,1,1,1373,-2,"Female","Homosexual"
"S049","Female_couple_015_h",7,2,8545,"blue","Fiction",5,5,5,1,1,1231,-3,"Female","Homosexual"
"S049","Female_009_h",8,2,3888,"blue","Fiction",5,5,5,1,1,1413,-2,"Female","Homosexual"
"S049","Female_015_v",9,2,2930,"blue","Fiction",2,2,2,1,1,1234,0,"Female","Homosexual"
"S049","Female_couple_022_h",10,2,2877,"green","Reality",3,3,3,1,1,1237,2,"Female","Homosexual"
"S049","Female_couple_028_h",11,2,2638,"green","Reality",2,2,2,1,1,1000,2,"Female","Homosexual"
"S049","Female_025_h",12,2,3490,"green","Reality",2,2,2,1,1,1128,-3,"Female","Homosexual"
"S049","Female_couple_040_h",13,2,2468,"blue","Fiction",3,3,3,1,1,1324,2,"Female","Homosexual"
"S049","Female_couple_009_v",14,2,3539,"blue","Fiction",6,6,6,1,1,1293,-2,"Female","Homosexual"
"S049","Female_couple_024_h",15,2,3565,"green","Reality",4,4,4,1,1,1589,-2,"Female","Homosexual"
"S049","Female_001_h",16,2,12726,"blue","Fiction",3,3,3,1,1,1610,3,"Female","Homosexual"
"S049","Female_couple_014_v",17,2,7462,"green","Reality",5,5,5,1,1,1445,-3,"Female","Homosexual"
"S049","Female_couple_013_h",18,2,3800,"green","Reality",2,2,2,1,1,1140,2,"Female","Homosexual"
"S049","Female_010_h",19,2,3067,"blue","Fiction",2,2,2,1,1,1308,-2,"Female","Homosexual"
"S049","Female_024_v",20,2,3018,"blue","Fiction",2,2,2,1,1,1451,-1,"Female","Homosexual"
"S049","Female_couple_032_v",21,2,3101,"green","Reality",5,5,5,1,1,1647,-1,"Female","Homosexual"
"S049","Female_013_h",22,2,2830,"blue","Fiction",5,5,5,1,1,1148,-3,"Female","Homosexual"
"S049","Female_021_h",23,2,8973,"green","Reality",2,2,2,1,1,1050,-2,"Female","Homosexual"
"S049","Female_couple_023_h",24,2,4558,"blue","Fiction",5,5,5,1,1,1170,-1,"Female","Homosexual"
"S049","Female_couple_037_v",25,2,3772,"green","Reality",6,6,6,1,1,1215,3,"Female","Homosexual"
"S049","Female_017_v",26,2,3565,"green","Reality",3,3,3,1,1,1271,-3,"Female","Homosexual"
"S049","Female_couple_008_v",27,2,2942,"blue","Fiction",5,5,5,1,1,1270,-2,"Female","Homosexual"
"S049","Female_008_v",28,2,2358,"green","Reality",2,2,2,1,1,1075,2,"Female","Homosexual"
"S049","Female_couple_002_v",29,2,2510,"green","Reality",4,4,4,1,1,1224,3,"Female","Homosexual"
"S049","Female_couple_021_h",30,2,3315,"blue","Fiction",1,1,1,1,1,1280,-2,"Female","Homosexual"
"S049","Female_014_v",31,2,2866,"blue","Fiction",2,2,2,1,1,1451,-3,"Female","Homosexual"
"S049","Female_016_h",32,2,3101,"green","Reality",2,2,2,1,1,1442,-3,"Female","Homosexual"
"S049","Female_couple_012_v",33,2,2833,"green","Reality",2,2,2,1,1,922,2,"Female","Homosexual"
"S049","Female_couple_003_h",34,2,3095,"blue","Fiction",4,4,5,1,1,1228,3,"Female","Homosexual"
"S049","Female_couple_048_h",35,2,3474,"blue","Fiction",5,5,5,1,1,1109,2,"Female","Homosexual"
"S049","Female_003_v",36,2,2988,"green","Reality",3,3,3,1,1,1012,-1,"Female","Homosexual"
"S049","Female_006_v",37,2,3015,"green","Reality",5,5,5,1,1,1176,2,"Female","Homosexual"
"S049","Female_couple_038_h",38,2,4429,"green","Reality",3,3,3,1,1,1642,2,"Female","Homosexual"
"S049","Female_012_v",39,2,2872,"blue","Fiction",3,3,3,1,1,1762,-3,"Female","Homosexual"
"S049","Female_022_h",40,2,9605,"blue","Fiction",5,5,5,1,1,2557,2,"Female","Homosexual"
"S049","Female_couple_031_v",41,2,2497,"green","Reality",3,3,3,1,1,1098,3,"Female","Homosexual"
"S049","Female_005_v",42,2,3828,"blue","Fiction",3,3,3,1,1,1097,3,"Female","Homosexual"
"S049","Female_couple_019_h",43,2,2756,"blue","Fiction",5,5,5,1,1,1432,-3,"Female","Homosexual"
"S049","Female_couple_034_h",44,2,2721,"green","Reality",3,3,3,1,1,1201,3,"Female","Homosexual"
"S049","Female_011_h",45,2,4614,"green","Reality",3,3,3,1,1,1145,-2,"Female","Homosexual"
"S049","Female_couple_025_h",46,2,4230,"blue","Fiction",5,5,5,1,1,1194,3,"Female","Homosexual"
"S049","Female_couple_016_v",47,2,2887,"blue","Fiction",3,3,3,1,1,1437,3,"Female","Homosexual"
"S049","Female_004_v",48,2,2365,"green","Reality",2,2,2,1,1,1433,-2,"Female","Homosexual"
"S049","Female_couple_010_h",49,2,2441,"green","Reality",5,5,5,1,1,1116,2,"Female","Homosexual"
"S049","Female_couple_020_h",50,2,3919,"blue","Fiction",4,4,4,1,1,1271,2,"Female","Homosexual"
"S083","Opposite-sex_couple_011_h",1,2,8774,"red","Reality",6,6,0,1,1,1537,3,"Female","Heterosexual"
"S083","Male_019_h",2,2,6183,"red","Reality",5,6,0,1,1,1199,3,"Female","Heterosexual"
"S083","Opposite-sex_couple_035_h",3,2,4476,"red","Reality",6,6,0,1,1,1595,-3,"Female","Heterosexual"
"S083","Opposite-sex_couple_014_h",4,2,4958,"blue","Fiction",6,6,0,1,1,1976,1,"Female","Heterosexual"
"S083","Opposite-sex_couple_042_h",5,2,4992,"red","Reality",4,4,0,1,1,1315,-3,"Female","Heterosexual"
"S083","Opposite-sex_couple_013_h",6,2,5957,"blue","Fiction",6,5,5,1,1,1467,-3,"Female","Heterosexual"
"S083","Male_010_v",7,2,4483,"blue","Fiction",6,6,0,1,1,1100,3,"Female","Heterosexual"
"S083","Opposite-sex_couple_017_v",8,2,4367,"blue","Fiction",6,6,0,1,1,2098,3,"Female","Heterosexual"
"S083","Male_004_v",9,2,4138,"blue","Fiction",6,6,0,1,1,1284,2,"Female","Heterosexual"
"S083","Male_002_v",10,2,4428,"red","Reality",3,4,2,1,1,1955,3,"Female","Heterosexual"
"S083","Male_009_v",11,2,4401,"blue","Fiction",5,3,0,1,1,1127,-3,"Female","Heterosexual"
"S083","Male_007_h",12,2,5300,"red","Reality",6,4,4,1,1,1967,-2,"Female","Heterosexual"
"S083","Opposite-sex_couple_007_h",13,2,9305,"blue","Fiction",5,4,0,1,1,1504,3,"Female","Heterosexual"
"S083","Opposite-sex_couple_019_v",14,2,4399,"blue","Fiction",3,6,0,1,1,1607,3,"Female","Heterosexual"
"S083","Male_015_v",15,2,4305,"blue","Fiction",1,3,0,1,1,1807,3,"Female","Heterosexual"
"S083","Male_023_v",16,2,4955,"red","Reality",2,4,0,1,1,3068,-1,"Female","Heterosexual"
"S083","Male_022_v",17,2,5083,"red","Reality",6,3,6,1,1,1164,-3,"Female","Heterosexual"
"S083","Opposite-sex_couple_033_v",18,2,11962,"red","Reality",4,4,6,1,1,1784,-2,"Female","Heterosexual"
"S083","Male_006_v",19,2,4579,"blue","Fiction",5,4,4,1,1,1618,2,"Female","Heterosexual"
"S083","Opposite-sex_couple_015_h",20,2,4704,"red","Reality",4,4,2,1,1,1085,3,"Female","Heterosexual"
"S083","Male_017_v",21,2,4259,"blue","Fiction",4,5,2,1,1,1472,2,"Female","Heterosexual"
"S083","Opposite-sex_couple_020_h",22,2,4167,"blue","Fiction",4,5,4,1,1,1620,3,"Female","Heterosexual"
"S083","Male_013_v",23,2,4761,"red","Reality",6,4,3,1,1,1394,-1,"Female","Heterosexual"
"S083","Male_003_v",24,2,3389,"red","Reality",6,6,6,1,1,1535,-3,"Female","Heterosexual"
"S083","Opposite-sex_couple_018_h",25,2,4089,"blue","Fiction",6,6,0,1,1,1595,-3,"Female","Heterosexual"
"S083","Male_005_v",26,2,7506,"red","Reality",6,6,0,1,1,1444,-3,"Female","Heterosexual"
"S083","Opposite-sex_couple_024_h",27,2,5745,"red","Reality",6,6,4,1,1,1477,-1,"Female","Heterosexual"
"S083","Opposite-sex_couple_001_v",28,2,4629,"blue","Fiction",4,4,6,1,1,2322,1,"Female","Heterosexual"
"S083","Opposite-sex_couple_005_h",29,2,4401,"blue","Fiction",6,5,2,1,1,1786,3,"Female","Heterosexual"
"S083","Male_001_v",30,2,6914,"blue","Fiction",0,1,0,1,1,1084,-3,"Female","Heterosexual"
"S083","Male_012_h",31,2,5553,"red","Reality",4,4,5,1,1,1293,0,"Female","Heterosexual"
"S083","Opposite-sex_couple_025_h",32,2,4158,"red","Reality",6,6,4,1,1,1164,-1,"Female","Heterosexual"
"S083","Male_016_v",33,2,3884,"red","Reality",6,6,4,1,1,1711,-2,"Female","Heterosexual"
"S083","Opposite-sex_couple_008_h",34,2,3808,"blue","Fiction",6,6,1,1,1,1231,-3,"Female","Heterosexual"
"S083","Male_018_v",35,2,3702,"blue","Fiction",6,6,6,1,1,1718,-1,"Female","Heterosexual"
"S083","Opposite-sex_couple_016_v",36,2,3678,"red","Reality",6,6,6,1,1,2763,3,"Female","Heterosexual"
"S083","Male_014_v",37,2,3638,"blue","Fiction",6,5,0,1,1,1680,-3,"Female","Heterosexual"
"S083","Opposite-sex_couple_002_h",38,2,3183,"blue","Fiction",5,5,3,1,1,1440,2,"Female","Heterosexual"
"S083","Male_021_h",39,2,4531,"red","Reality",6,6,4,1,1,2116,3,"Female","Heterosexual"
"S083","Opposite-sex_couple_022_v",40,2,4565,"red","Reality",6,4,3,1,1,1756,-3,"Female","Heterosexual"
"S083","Male_025_v",41,2,2936,"red","Reality",0,0,0,1,1,2277,-3,"Female","Heterosexual"
"S083","Male_020_v",42,2,3485,"blue","Fiction",4,5,4,1,1,1741,-3,"Female","Heterosexual"
"S083","Male_011_v",43,2,4201,"blue","Fiction",3,2,2,1,1,1352,3,"Female","Heterosexual"
"S083","Male_008_v",44,2,3962,"blue","Fiction",6,6,4,1,1,1401,-3,"Female","Heterosexual"
"S083","Opposite-sex_couple_012_h",45,2,3660,"blue","Fiction",6,6,3,1,1,1442,2,"Female","Heterosexual"
"S083","Opposite-sex_couple_048_h",46,2,4082,"red","Reality",2,3,1,1,1,1752,3,"Female","Heterosexual"
"S083","Opposite-sex_couple_009_h",47,2,3299,"red","Reality",2,4,3,1,1,1566,-1,"Female","Heterosexual"
"S083","Opposite-sex_couple_047_v",48,2,3429,"red","Reality",6,5,4,1,1,2616,2,"Female","Heterosexual"
"S083","Male_024_h",49,2,4766,"red","Reality",2,0,0,1,1,1910,-3,"Female","Heterosexual"
"S083","Opposite-sex_couple_023_h",50,2,3092,"red","Reality",6,5,5,1,1,1723,2,"Female","Heterosexual"
"S073","Opposite-sex_couple_035_h",1,2,7574,"red","Reality",0,1,3,1,1,1119,-3,"Male","Heterosexual"
"S073","Female_012_v",2,2,6441,"green","Fiction",1,4,4,1,1,1788,-3,"Male","Heterosexual"
"S073","Opposite-sex_couple_033_v",3,2,4676,"green","Fiction",0,1,0,1,1,1155,-1,"Male","Heterosexual"
"S073","Female_001_h",4,2,4861,"red","Reality",0,0,0,1,1,1248,3,"Male","Heterosexual"
"S073","Female_011_h",5,2,4534,"red","Reality",0,2,3,1,1,1106,-3,"Male","Heterosexual"
"S073","Female_003_v",6,2,2543,"green","Fiction",0,0,0,1,1,842,-3,"Male","Heterosexual"
"S073","Opposite-sex_couple_001_v",7,2,2756,"green","Fiction",0,0,0,1,1,818,-3,"Male","Heterosexual"
"S073","Female_023_h",8,2,4032,"green","Fiction",0,0,1,1,1,1737,-3,"Male","Heterosexual"
"S073","Opposite-sex_couple_047_v",9,2,4957,"red","Reality",0,3,3,1,1,1658,2,"Male","Heterosexual"
"S073","Female_008_v",10,2,3000,"green","Fiction",0,0,0,1,1,1208,-3,"Male","Heterosexual"
"S073","Female_005_v",11,2,5042,"red","Reality",0,3,3,1,1,1311,1,"Male","Heterosexual"
"S073","Female_021_h",12,2,10319,"red","Reality",5,4,5,1,1,1391,-3,"Male","Heterosexual"
"S073","Opposite-sex_couple_007_h",13,2,4215,"red","Reality",3,4,5,1,1,1300,-1,"Male","Heterosexual"
"S073","Opposite-sex_couple_023_h",14,2,6963,"green","Fiction",3,4,3,1,1,966,-3,"Male","Heterosexual"
"S073","Female_020_v",15,2,5704,"red","Reality",6,5,6,1,1,1130,1,"Male","Heterosexual"
"S073","Female_018_h",16,2,5229,"red","Reality",6,6,6,1,1,1271,-3,"Male","Heterosexual"
"S073","Female_022_h",17,2,8083,"green","Fiction",1,2,1,1,1,864,-3,"Male","Heterosexual"
"S073","Female_010_h",18,2,11679,"green","Fiction",3,3,3,1,1,2833,2,"Male","Heterosexual"
"S073","Female_013_h",19,2,2381,"green","Fiction",0,0,0,1,1,2668,-3,"Male","Heterosexual"
"S073","Opposite-sex_couple_042_h",20,2,5679,"green","Fiction",2,2,2,1,1,1849,1,"Male","Heterosexual"
"S073","Opposite-sex_couple_016_v",21,2,3174,"green","Fiction",0,0,0,1,1,1390,0,"Male","Heterosexual"
"S073","Opposite-sex_couple_024_h",22,2,4093,"red","Reality",0,0,3,1,1,2347,1,"Male","Heterosexual"
"S073","Opposite-sex_couple_008_h",23,2,4888,"red","Reality",3,5,4,1,1,3000,-1,"Male","Heterosexual"
"S073","Female_006_v",24,2,6241,"red","Reality",0,2,3,1,1,1368,1,"Male","Heterosexual"
"S073","Opposite-sex_couple_005_h",25,2,2984,"red","Reality",0,0,0,1,1,1282,2,"Male","Heterosexual"
"S073","Opposite-sex_couple_022_v",26,2,3265,"red","Reality",0,0,0,1,1,1417,2,"Male","Heterosexual"
"S073","Opposite-sex_couple_020_h",27,2,5624,"green","Fiction",3,6,5,1,1,991,-3,"Male","Heterosexual"
"S073","Opposite-sex_couple_014_h",28,2,2164,"red","Reality",0,0,0,1,1,1669,2,"Male","Heterosexual"
"S073","Female_009_h",29,2,4398,"green","Fiction",3,5,3,1,1,772,-3,"Male","Heterosexual"
"S073","Opposite-sex_couple_018_h",30,2,2443,"green","Fiction",0,0,0,1,1,1233,2,"Male","Heterosexual"
"S073","Opposite-sex_couple_009_h",31,2,2108,"green","Fiction",0,0,0,1,1,1894,1,"Male","Heterosexual"
"S073","Female_014_v",32,2,2794,"green","Fiction",0,0,0,1,1,3566,2,"Male","Heterosexual"
"S073","Female_007_v",33,2,3787,"red","Reality",0,3,5,1,1,1244,3,"Male","Heterosexual"
"S073","Opposite-sex_couple_013_h",34,2,2035,"red","Reality",0,0,0,1,1,1520,3,"Male","Heterosexual"
"S073","Opposite-sex_couple_017_v",35,2,2464,"green","Fiction",0,0,3,1,1,1376,-1,"Male","Heterosexual"
"S073","Opposite-sex_couple_025_h",36,2,3400,"green","Fiction",0,0,0,1,1,1513,2,"Male","Heterosexual"
"S073","Female_024_v",37,2,3152,"green","Fiction",0,0,0,1,1,1132,-3,"Male","Heterosexual"
"S073","Opposite-sex_couple_011_h",38,2,6428,"green","Fiction",0,0,4,1,1,1204,1,"Male","Heterosexual"
"S073","Female_002_h",39,2,5487,"green","Fiction",6,5,5,1,1,2842,-2,"Male","Heterosexual"
"S073","Female_016_h",40,2,2861,"green","Fiction",0,0,0,1,1,1590,0,"Male","Heterosexual"
"S073","Opposite-sex_couple_012_h",41,2,3212,"red","Reality",0,0,0,1,1,1514,0,"Male","Heterosexual"
"S073","Opposite-sex_couple_019_v",42,2,3722,"red","Reality",0,5,5,1,1,1510,-2,"Male","Heterosexual"
"S073","Opposite-sex_couple_015_h",43,2,3987,"red","Reality",4,4,4,1,1,877,3,"Male","Heterosexual"
"S073","Female_017_v",44,2,5377,"red","Reality",3,2,3,1,1,1140,-3,"Male","Heterosexual"
"S073","Female_019_h",45,2,5165,"red","Reality",6,5,5,1,1,1855,2,"Male","Heterosexual"
"S073","Female_015_v",46,2,2586,"red","Reality",0,0,0,1,1,1136,-3,"Male","Heterosexual"
"S073","Female_025_h",47,2,4493,"red","Reality",0,3,3,1,1,1218,2,"Male","Heterosexual"
"S073","Female_004_v",48,2,4007,"red","Reality",0,3,3,1,1,1217,-1,"Male","Heterosexual"
"S073","Opposite-sex_couple_002_h",49,2,3284,"green","Fiction",4,4,5,1,1,1295,3,"Male","Heterosexual"
"S073","Opposite-sex_couple_048_h",50,2,4105,"red","Reality",1,3,4,1,1,1277,2,"Male","Heterosexual"
"S169","Opposite-sex_couple_013_h",1,2,8415,"blue","Reality",0,0,0,1,1,1590,-2,"Female","Heterosexual"
"S169","Opposite-sex_couple_020_h",2,2,5896,"blue","Reality",1,2,1,1,1,1933,1,"Female","Heterosexual"
"S169","Male_004_v",3,2,6841,"blue","Reality",1,1,2,1,1,1299,3,"Female","Heterosexual"
"S169","Male_005_v",4,2,2879,"red","Fiction",0,0,0,1,1,1240,2,"Female","Heterosexual"
"S169","Male_006_v",5,2,5573,"red","Fiction",0,1,1,1,1,2414,2,"Female","Heterosexual"
"S169","Opposite-sex_couple_022_v",6,2,2783,"blue","Reality",1,1,1,1,1,5870,2,"Female","Heterosexual"
"S169","Male_019_h",7,2,2520,"blue","Reality",1,1,2,1,1,2456,3,"Female","Heterosexual"
"S169","Male_018_v",8,2,3248,"red","Fiction",1,1,2,1,1,881,0,"Female","Heterosexual"
"S169","Opposite-sex_couple_048_h",9,2,3343,"blue","Reality",3,2,2,1,1,1346,3,"Female","Heterosexual"
"S169","Male_002_v",10,2,3237,"blue","Reality",1,1,0,1,1,1954,2,"Female","Heterosexual"
"S169","Opposite-sex_couple_024_h",11,2,3556,"red","Fiction",2,2,1,1,1,1293,-2,"Female","Heterosexual"
"S169","Male_011_v",12,2,2961,"blue","Reality",2,0,1,1,1,50761,0,"Female","Heterosexual"
"S169","Male_014_v",13,2,6300,"blue","Reality",1,1,0,1,1,5004,2,"Female","Heterosexual"
"S169","Male_016_v",14,2,3230,"red","Fiction",2,1,2,1,1,2483,-2,"Female","Heterosexual"
"S169","Male_024_h",15,2,3457,"red","Fiction",2,1,1,1,1,2605,1,"Female","Heterosexual"
"S169","Opposite-sex_couple_033_v",16,2,4666,"blue","Reality",2,1,2,1,1,2053,2,"Female","Heterosexual"
"S169","Male_021_h",17,2,12535,"blue","Reality",2,1,2,1,1,2321,1,"Female","Heterosexual"
"S169","Opposite-sex_couple_002_h",18,2,2737,"blue","Reality",1,1,1,1,1,1876,1,"Female","Heterosexual"
"S169","Opposite-sex_couple_016_v",19,2,2921,"blue","Reality",2,0,1,1,1,2232,0,"Female","Heterosexual"
"S169","Opposite-sex_couple_015_h",20,2,1782,"blue","Reality",5,3,3,1,1,1905,2,"Female","Heterosexual"
"S169","Opposite-sex_couple_009_h",21,2,2959,"red","Fiction",2,2,1,1,1,2010,-2,"Female","Heterosexual"
"S169","Male_003_v",22,2,2003,"blue","Reality",2,1,2,1,1,1641,1,"Female","Heterosexual"
"S169","Opposite-sex_couple_018_h",23,2,7266,"red","Fiction",1,1,2,1,1,1169,1,"Female","Heterosexual"
"S169","Male_013_v",24,2,2906,"red","Fiction",2,1,2,1,1,2614,0,"Female","Heterosexual"
"S169","Male_009_v",25,2,62203,"blue","Reality",2,2,0,1,1,2483,1,"Female","Heterosexual"
"S169","Male_025_v",26,2,10482,"red","Fiction",1,2,1,1,1,1629,1,"Female","Heterosexual"
"S169","Opposite-sex_couple_035_h",27,2,2973,"blue","Reality",2,1,1,1,1,3161,-3,"Female","Heterosexual"
"S169","Male_001_v",28,2,3984,"red","Fiction",2,1,2,1,1,1437,2,"Female","Heterosexual"
"S169","Opposite-sex_couple_017_v",29,2,2321,"blue","Reality",2,1,2,1,1,1980,1,"Female","Heterosexual"
"S169","Opposite-sex_couple_023_h",30,2,3570,"blue","Reality",2,1,2,1,1,1537,1,"Female","Heterosexual"
"S169","Male_022_v",31,2,2370,"blue","Reality",2,1,2,1,1,1940,-2,"Female","Heterosexual"
"S169","Male_020_v",32,2,6989,"red","Fiction",2,1,2,1,1,1524,-1,"Female","Heterosexual"
"S169","Opposite-sex_couple_047_v",33,2,2192,"red","Fiction",3,1,2,1,1,2991,2,"Female","Heterosexual"
"S169","Opposite-sex_couple_019_v",34,2,5731,"blue","Reality",1,2,2,1,1,1028,2,"Female","Heterosexual"
"S169","Male_010_v",35,2,9481,"red","Fiction",2,1,2,1,1,1244,0,"Female","Heterosexual"
"S169","Opposite-sex_couple_012_h",36,2,3502,"red","Fiction",2,1,0,1,1,3420,1,"Female","Heterosexual"
"S169","Male_008_v",37,2,5822,"red","Fiction",0,0,0,1,1,1563,2,"Female","Heterosexual"
"S169","Opposite-sex_couple_042_h",38,2,5737,"red","Fiction",0,0,0,1,1,2528,-2,"Female","Heterosexual"
"S169","Opposite-sex_couple_014_h",39,2,2379,"red","Fiction",0,0,0,1,1,2693,0,"Female","Heterosexual"
"S169","Male_012_h",40,2,2378,"blue","Reality",1,0,0,1,1,1831,2,"Female","Heterosexual"
"S169","Male_017_v",41,2,3270,"blue","Reality",1,0,0,1,1,884,2,"Female","Heterosexual"
"S169","Opposite-sex_couple_007_h",42,2,1850,"blue","Reality",0,1,0,1,1,8290,1,"Female","Heterosexual"
"S169","Male_023_v",43,2,2220,"blue","Reality",5,5,6,1,1,1356,2,"Female","Heterosexual"
"S169","Opposite-sex_couple_025_h",44,2,6568,"red","Fiction",1,1,0,1,1,1260,2,"Female","Heterosexual"
"S169","Opposite-sex_couple_008_h",45,2,2929,"red","Fiction",0,0,1,1,1,1179,2,"Female","Heterosexual"
"S169","Opposite-sex_couple_011_h",46,2,4464,"red","Fiction",2,1,0,1,1,13572,1,"Female","Heterosexual"
"S169","Opposite-sex_couple_005_h",47,2,3838,"red","Fiction",1,0,1,1,1,3358,2,"Female","Heterosexual"
"S169","Male_007_h",48,2,1977,"red","Fiction",2,1,1,1,1,1761,2,"Female","Heterosexual"
"S169","Opposite-sex_couple_001_v",49,2,3269,"red","Fiction",2,0,1,1,1,1955,2,"Female","Heterosexual"
"S169","Male_015_v",50,2,4506,"blue","Reality",2,0,1,1,1,54338,0,"Female","Heterosexual"
"S076","Male_023_v",1,2,6860,"green","Fiction",3,4,5,1,1,1510,1,"Female","Heterosexual"
"S076","Opposite-sex_couple_023_h",2,2,6033,"red","Reality",3,4,3,1,1,2442,-1,"Female","Heterosexual"
"S076","Male_019_h",3,2,4446,"red","Reality",2,1,1,1,1,1507,1,"Female","Heterosexual"
"S076","Opposite-sex_couple_022_v",4,2,4223,"green","Fiction",2,1,1,1,1,1416,-1,"Female","Heterosexual"
"S076","Male_011_v",5,2,4960,"green","Fiction",2,1,1,1,1,1331,-1,"Female","Heterosexual"
"S076","Male_018_v",6,2,5719,"red","Reality",3,4,3,1,1,1502,-1,"Female","Heterosexual"
"S076","Opposite-sex_couple_042_h",7,2,5495,"green","Fiction",2,3,3,1,1,2212,-3,"Female","Heterosexual"
"S076","Opposite-sex_couple_017_v",8,2,4375,"green","Fiction",3,2,2,1,1,5666,2,"Female","Heterosexual"
"S076","Male_008_v",9,2,6517,"green","Fiction",4,4,4,1,1,1291,-3,"Female","Heterosexual"
"S076","Male_017_v",10,2,5496,"red","Reality",4,5,5,1,1,3390,-1,"Female","Heterosexual"
"S076","Opposite-sex_couple_011_h",11,2,7591,"green","Fiction",2,1,2,1,1,1057,2,"Female","Heterosexual"
"S076","Opposite-sex_couple_007_h",12,2,5090,"green","Fiction",2,3,1,1,1,1156,1,"Female","Heterosexual"
"S076","Opposite-sex_couple_020_h",13,2,7442,"green","Fiction",4,5,4,1,1,1308,-2,"Female","Heterosexual"
"S076","Opposite-sex_couple_018_h",14,2,5673,"red","Reality",4,4,4,1,1,1726,1,"Female","Heterosexual"
"S076","Opposite-sex_couple_015_h",15,2,3811,"red","Reality",5,4,4,1,1,1420,-2,"Female","Heterosexual"
"S076","Opposite-sex_couple_009_h",16,2,3062,"red","Reality",3,2,2,1,1,1453,1,"Female","Heterosexual"
"S076","Male_007_h",17,2,3697,"red","Reality",4,4,3,1,1,1175,2,"Female","Heterosexual"
"S076","Male_014_v",18,2,5350,"red","Reality",5,5,4,1,1,5451,-1,"Female","Heterosexual"
"S076","Opposite-sex_couple_001_v",19,2,2755,"red","Reality",3,2,3,1,1,1642,-1,"Female","Heterosexual"
"S076","Opposite-sex_couple_035_h",20,2,3055,"red","Reality",2,1,2,1,1,1877,1,"Female","Heterosexual"
"S076","Male_003_v",21,2,5013,"green","Fiction",2,2,2,1,1,1440,-1,"Female","Heterosexual"
"S076","Opposite-sex_couple_019_v",22,2,5712,"red","Reality",1,2,4,1,1,1157,-1,"Female","Heterosexual"
"S076","Opposite-sex_couple_014_h",23,2,6250,"red","Reality",3,4,4,1,1,2334,2,"Female","Heterosexual"
"S076","Male_020_v",24,2,3557,"red","Reality",2,3,4,1,1,1688,1,"Female","Heterosexual"
"S076","Opposite-sex_couple_002_h",25,2,4709,"green","Fiction",2,3,4,1,1,2039,1,"Female","Heterosexual"
"S076","Opposite-sex_couple_012_h",26,2,5000,"green","Fiction",4,5,6,1,1,1491,-2,"Female","Heterosexual"
"S076","Opposite-sex_couple_047_v",27,2,6701,"red","Reality",3,4,4,1,1,1085,2,"Female","Heterosexual"
"S076","Male_022_v",28,2,5015,"green","Fiction",4,4,5,1,1,1381,-2,"Female","Heterosexual"
"S076","Male_021_h",29,2,7841,"green","Fiction",3,4,4,1,1,1059,1,"Female","Heterosexual"
"S076","Male_005_v",30,2,5987,"green","Fiction",2,1,1,1,1,1210,-3,"Female","Heterosexual"
"S076","Opposite-sex_couple_013_h",31,2,5313,"red","Reality",2,3,3,1,1,1008,2,"Female","Heterosexual"
"S076","Male_013_v",32,2,5214,"red","Reality",2,3,3,1,1,1569,1,"Female","Heterosexual"
"S076","Opposite-sex_couple_025_h",33,2,5173,"green","Fiction",5,5,6,1,1,1979,1,"Female","Heterosexual"
"S076","Male_012_h",34,2,4062,"red","Reality",4,3,3,1,1,1115,2,"Female","Heterosexual"
"S076","Opposite-sex_couple_048_h",35,2,3636,"green","Fiction",3,4,5,1,1,1086,2,"Female","Heterosexual"
"S076","Male_016_v",36,2,2893,"red","Reality",2,3,2,1,1,2580,-3,"Female","Heterosexual"
"S076","Male_004_v",37,2,4613,"red","Reality",2,3,3,1,1,1434,-3,"Female","Heterosexual"
"S076","Male_001_v",38,2,3962,"red","Reality",0,0,0,1,1,2848,-1,"Female","Heterosexual"
"S076","Male_010_v",39,2,5785,"green","Fiction",2,3,3,1,1,1917,0,"Female","Heterosexual"
"S076","Male_006_v",40,2,4055,"red","Reality",1,1,3,1,1,1047,1,"Female","Heterosexual"
"S076","Male_024_h",41,2,5506,"red","Reality",2,3,4,1,1,1583,-2,"Female","Heterosexual"
"S076","Opposite-sex_couple_008_h",42,2,5915,"red","Reality",3,4,3,1,1,1112,-2,"Female","Heterosexual"
"S076","Male_025_v",43,2,7587,"green","Fiction",0,0,0,1,1,978,-2,"Female","Heterosexual"
"S076","Male_015_v",44,2,3670,"green","Fiction",2,3,4,1,1,1111,2,"Female","Heterosexual"
"S076","Opposite-sex_couple_016_v",45,2,3843,"green","Fiction",2,4,3,1,1,969,-2,"Female","Heterosexual"
"S076","Opposite-sex_couple_005_h",46,2,5057,"red","Reality",5,5,5,1,1,1243,2,"Female","Heterosexual"
"S076","Opposite-sex_couple_024_h",47,2,3869,"green","Fiction",4,5,4,1,1,1288,2,"Female","Heterosexual"
"S076","Male_009_v",48,2,6007,"green","Fiction",3,5,5,1,1,926,-3,"Female","Heterosexual"
"S076","Opposite-sex_couple_033_v",49,2,3575,"red","Reality",2,3,4,1,1,1097,2,"Female","Heterosexual"
"S076","Male_002_v",50,2,5423,"green","Fiction",2,4,4,1,1,1519,-2,"Female","Heterosexual"
"S102","Female_004_v",1,2,4693,"green","Fiction",4,5,4,1,1,1278,-1,"Male","Heterosexual"
"S102","Female_020_v",2,2,7200,"green","Fiction",5,5,5,1,1,1365,2,"Male","Heterosexual"
"S102","Female_018_h",3,2,5292,"red","Reality",5,5,5,1,1,1242,2,"Male","Heterosexual"
"S102","Female_022_h",4,2,6569,"green","Fiction",4,5,5,1,1,1924,1,"Male","Heterosexual"
"S102","Opposite-sex_couple_011_h",5,2,7299,"green","Fiction",3,2,4,1,1,1773,1,"Male","Heterosexual"
"S102","Opposite-sex_couple_019_v",6,2,7202,"red","Reality",1,1,3,1,1,1031,-2,"Male","Heterosexual"
"S102","Opposite-sex_couple_009_h",7,2,7970,"green","Fiction",4,3,4,1,1,1256,0,"Male","Heterosexual"
"S102","Opposite-sex_couple_047_v",8,2,5481,"red","Reality",2,3,3,1,1,1456,-1,"Male","Heterosexual"
"S102","Female_014_v",9,2,7403,"green","Fiction",3,4,3,1,1,1155,-1,"Male","Heterosexual"
"S102","Female_007_v",10,2,13310,"red","Reality",2,2,3,1,1,965,-1,"Male","Heterosexual"
"S102","Female_023_h",11,2,5341,"red","Reality",3,3,4,1,1,1435,1,"Male","Heterosexual"
"S102","Female_024_v",12,2,9518,"red","Reality",2,3,3,1,1,1141,0,"Male","Heterosexual"
"S102","Opposite-sex_couple_020_h",13,2,8476,"red","Reality",3,2,3,1,1,1127,-1,"Male","Heterosexual"
"S102","Opposite-sex_couple_022_v",14,2,8353,"green","Fiction",1,2,2,1,1,839,-2,"Male","Heterosexual"
"S102","Opposite-sex_couple_005_h",15,2,8692,"red","Reality",4,3,3,1,1,1325,1,"Male","Heterosexual"
"S102","Female_005_v",16,2,6280,"green","Fiction",2,2,1,1,1,1103,1,"Male","Heterosexual"
"S102","Female_017_v",17,2,5728,"red","Reality",4,4,4,1,1,1522,-1,"Male","Heterosexual"
"S102","Opposite-sex_couple_008_h",18,2,8354,"green","Fiction",3,3,3,1,1,835,1,"Male","Heterosexual"
"S102","Opposite-sex_couple_015_h",19,2,5553,"red","Reality",1,1,2,1,1,1069,-2,"Male","Heterosexual"
"S102","Female_019_h",20,2,5018,"red","Reality",2,3,3,1,1,954,-2,"Male","Heterosexual"
"S102","Opposite-sex_couple_016_v",21,2,7625,"green","Fiction",0,1,2,1,1,1600,-2,"Male","Heterosexual"
"S102","Opposite-sex_couple_048_h",22,2,6077,"green","Fiction",0,1,2,1,1,1018,-1,"Male","Heterosexual"
"S102","Female_025_h",23,2,5637,"green","Fiction",2,4,3,1,1,1072,1,"Male","Heterosexual"
"S102","Opposite-sex_couple_018_h",24,2,5474,"red","Reality",3,3,3,1,1,1961,2,"Male","Heterosexual"
"S102","Female_006_v",25,2,4205,"red","Reality",3,4,4,1,1,1043,-1,"Male","Heterosexual"
"S102","Female_001_h",26,2,4501,"green","Fiction",2,2,3,1,1,1180,-1,"Male","Heterosexual"
"S102","Female_012_v",27,2,6114,"red","Reality",2,2,2,1,1,1001,0,"Male","Heterosexual"
"S102","Female_016_h",28,2,7095,"green","Fiction",0,1,2,1,1,1542,0,"Male","Heterosexual"
"S102","Opposite-sex_couple_014_h",29,2,6274,"green","Fiction",1,1,2,1,1,1329,2,"Male","Heterosexual"
"S102","Opposite-sex_couple_025_h",30,2,6552,"green","Fiction",3,4,3,1,1,1298,2,"Male","Heterosexual"
"S102","Female_013_h",31,2,6359,"red","Reality",3,4,4,1,1,939,-1,"Male","Heterosexual"
"S102","Opposite-sex_couple_033_v",32,2,5056,"red","Reality",2,2,2,1,1,931,-1,"Male","Heterosexual"
"S102","Opposite-sex_couple_024_h",33,2,5193,"red","Reality",2,3,3,1,1,1164,-1,"Male","Heterosexual"
"S102","Opposite-sex_couple_013_h",34,2,6117,"red","Reality",1,2,4,1,1,1086,1,"Male","Heterosexual"
"S102","Female_002_h",35,2,3585,"green","Fiction",2,3,3,1,1,1246,1,"Male","Heterosexual"
"S102","Opposite-sex_couple_023_h",36,2,4878,"red","Reality",1,2,3,1,1,1558,1,"Male","Heterosexual"
"S102","Opposite-sex_couple_012_h",37,2,8290,"red","Reality",3,3,3,1,1,1205,1,"Male","Heterosexual"
"S102","Female_021_h",38,2,3870,"green","Fiction",2,3,3,1,1,1303,-1,"Male","Heterosexual"
"S102","Opposite-sex_couple_001_v",39,2,5509,"red","Reality",0,1,3,1,1,1616,1,"Male","Heterosexual"
"S102","Female_003_v",40,2,3611,"red","Reality",1,1,2,1,1,975,-2,"Male","Heterosexual"
"S102","Opposite-sex_couple_035_h",41,2,3172,"green","Fiction",0,0,1,1,1,1045,-1,"Male","Heterosexual"
"S102","Opposite-sex_couple_002_h",42,2,3262,"red","Reality",1,1,2,1,1,1308,-2,"Male","Heterosexual"
"S102","Female_008_v",43,2,4018,"green","Fiction",1,1,1,1,1,1054,1,"Male","Heterosexual"
"S102","Opposite-sex_couple_042_h",44,2,1896,"green","Fiction",0,0,0,1,1,1658,2,"Male","Heterosexual"
"S102","Opposite-sex_couple_007_h",45,2,2779,"green","Fiction",0,0,1,1,1,1978,0,"Male","Heterosexual"
"S102","Female_015_v",46,2,3694,"red","Reality",1,2,2,1,1,1730,1,"Male","Heterosexual"
"S102","Female_010_h",47,2,3327,"red","Reality",0,1,1,1,1,1997,1,"Male","Heterosexual"
"S102","Opposite-sex_couple_017_v",48,2,3783,"green","Fiction",1,1,1,1,1,2055,-1,"Male","Heterosexual"
"S102","Female_009_h",49,2,4567,"green","Fiction",1,2,2,1,1,1956,-1,"Male","Heterosexual"
"S102","Female_011_h",50,2,3497,"red","Reality",1,2,2,1,1,1192,-2,"Male","Heterosexual"
"S202","Male_couple_023_v",1,2,7812,"blue","Reality",2,1,1,1,1,2198,-3,"Male","Homosexual"
"S202","Male_022_v",2,2,7426,"blue","Reality",2,1,1,1,1,1402,-2,"Male","Homosexual"
"S202","Male_012_h",3,2,7085,"red","Fiction",2,3,4,1,1,1944,2,"Male","Homosexual"
"S202","Male_couple_018_h",4,2,9000,"red","Fiction",1,1,4,1,1,2055,0,"Male","Homosexual"
