"Participant","Stimulus","Trial_Order_Phase1","Trial_Duration_Phase1","Rating_RT_Phase1","Cue_Color","Condition","Arousal","Enticing","Valence","Trial_Order_Phase2","Trial_Duration_Phase2","Rating_RT_Phase2","Realness","Gender","SexualOrientation"
"S092","Opposite-sex_couple_033_v",1,2,15242,"red","Reality",0,1,3,1,1,842,3,"Female","Heterosexual"
"S092","Male_007_h",2,2,9073,"blue","Fiction",0,0,1,1,1,1440,3,"Female","Heterosexual"
"S092","Opposite-sex_couple_018_h",3,2,18381,"blue","Fiction",0,2,2,1,1,921,3,"Female","Heterosexual"
"S092","Male_018_v",4,2,4813,"blue","Fiction",0,0,0,1,1,899,3,"Female","Heterosexual"
"S092","Opposite-sex_couple_014_h",5,2,8245,"red","Reality",3,3,4,1,1,964,3,"Female","Heterosexual"
"S092","Male_019_h",6,2,4630,"blue","Fiction",0,0,0,1,1,960,3,"Female","Heterosexual"
"S092","Opposite-sex_couple_016_v",7,2,4757,"blue","Fiction",0,0,4,1,1,1225,3,"Female","Heterosexual"
"S092","Male_004_v",8,2,7459,"blue","Fiction",0,4,4,1,1,810,3,"Female","Heterosexual"
"S092","Opposite-sex_couple_012_h",9,2,4383,"red","Reality",0,0,0,1,1,1055,3,"Female","Heterosexual"
"S092","Male_001_v",10,2,3995,"blue","Fiction",0,0,0,1,1,881,3,"Female","Heterosexual"
"S092","Male_016_v",11,2,3685,"red","Reality",0,0,0,1,1,966,2,"Female","Heterosexual"
"S092","Opposite-sex_couple_025_h",12,2,7697,"blue","Fiction",4,4,4,1,1,4246,3,"Female","Heterosexual"
"S092","Male_015_v",13,2,5667,"blue","Fiction",0,6,5,1,1,1193,3,"Female","Heterosexual"
"S092","Opposite-sex_couple_017_v",14,2,4374,"blue","Fiction",0,0,0,1,1,782,3,"Female","Heterosexual"
"S092","Opposite-sex_couple_022_v",15,2,4055,"red","Reality",0,0,0,1,1,826,3,"Female","Heterosexual"
"S092","Male_023_v",16,2,7417,"red","Reality",0,5,5,1,1,958,3,"Female","Heterosexual"
"S092","Opposite-sex_couple_007_h",17,2,5248,"blue","Fiction",0,0,3,1,1,1459,3,"Female","Heterosexual"
"S092","Male_006_v",18,2,3744,"red","Reality",0,0,0,1,1,765,3,"Female","Heterosexual"
"S092","Male_008_v",19,2,3256,"blue","Fiction",0,0,0,1,1,815,3,"Female","Heterosexual"
"S092","Male_012_h",20,2,3244,"blue","Fiction",0,0,0,1,1,2247,3,"Female","Heterosexual"
"S092","Opposite-sex_couple_015_h",21,2,3853,"red","Reality",0,0,0,1,1,1129,3,"Female","Heterosexual"
"S092","Male_002_v",22,2,5921,"blue","Fiction",0,1,1,1,1,817,3,"Female","Heterosexual"
"S092","Opposite-sex_couple_023_h",23,2,3906,"red","Reality",0,0,0,1,1,858,3,"Female","Heterosexual"
"S092","Opposite-sex_couple_011_h",24,2,4361,"red","Reality",0,2,1,1,1,967,3,"Female","Heterosexual"
"S092","Opposite-sex_couple_005_h",25,2,5155,"blue","Fiction",3,3,3,1,1,2769,3,"Female","Heterosexual"
"S092","Opposite-sex_couple_019_v",26,2,6840,"red","Reality",0,2,6,1,1,2466,-3,"Female","Heterosexual"
"S092","Opposite-sex_couple_048_h",27,2,4912,"blue","Fiction",0,0,1,1,1,795,3,"Female","Heterosexual"
"S092","Opposite-sex_couple_002_h",28,2,3979,"blue","Fiction",0,0,0,1,1,839,3,"Female","Heterosexual"
"S092","Opposite-sex_couple_047_v",29,2,3189,"red","Reality",0,0,0,1,1,920,3,"Female","Heterosexual"
"S092","Opposite-sex_couple_042_h",30,2,8381,"blue","Fiction",0,2,2,1,1,881,3,"Female","Heterosexual"
"S092","Male_020_v",31,2,2625,"red","Reality",0,0,0,1,1,3760,3,"Female","Heterosexual"
"S092","Opposite-sex_couple_020_h",32,2,6220,"red","Reality",1,3,3,1,1,2314,2,"Female","Heterosexual"
"S092","Male_014_v",33,2,3520,"red","Reality",0,0,0,1,1,1118,3,"Female","Heterosexual"
"S092","Opposite-sex_couple_001_v",34,2,4821,"red","Reality",0,0,1,1,1,1442,-2,"Female","Heterosexual"
"S092","Male_022_v",35,2,4755,"red","Reality",0,1,1,1,1,1079,3,"Female","Heterosexual"
"S092","Male_017_v",36,2,3777,"blue","Fiction",0,0,0,1,1,1052,3,"Female","Heterosexual"
"S092","Opposite-sex_couple_024_h",37,2,3719,"blue","Fiction",1,1,2,1,1,1171,2,"Female","Heterosexual"
"S092","Male_009_v",38,2,4816,"red","Reality",0,2,2,1,1,1625,2,"Female","Heterosexual"
"S092","Opposite-sex_couple_035_h",39,2,7885,"blue","Fiction",0,1,4,1,1,1318,3,"Female","Heterosexual"
"S092","Opposite-sex_couple_009_h",40,2,2814,"red","Reality",0,0,0,1,1,975,3,"Female","Heterosexual"
"S092","Opposite-sex_couple_013_h",41,2,22785,"blue","Fiction",0,0,0,1,1,908,3,"Female","Heterosexual"
"S092","Male_003_v",42,2,5387,"red","Reality",0,0,0,1,1,827,3,"Female","Heterosexual"
"S092","Male_021_h",43,2,20986,"red","Reality",0,0,0,1,1,7280,3,"Female","Heterosexual"
"S092","Male_005_v",44,2,4009,"red","Reality",0,0,0,1,1,928,3,"Female","Heterosexual"
"S092","Male_010_v",45,2,2249,"red","Reality",0,0,0,1,1,780,3,"Female","Heterosexual"
"S092","Male_024_h",46,2,3819,"red","Reality",0,1,1,1,1,2264,0,"Female","Heterosexual"
"S092","Opposite-sex_couple_008_h",47,2,3400,"red","Reality",0,0,0,1,1,801,3,"Female","Heterosexual"
"S092","Male_013_v",48,2,3239,"blue","Fiction",0,0,0,1,1,982,3,"Female","Heterosexual"
"S092","Male_025_v",49,2,2208,"red","Reality",0,0,0,1,1,824,3,"Female","Heterosexual"
"S092","Male_011_v",50,2,5849,"blue","Fiction",0,0,0,1,1,939,3,"Female","Heterosexual"
"S040","Opposite-sex_couple_016_v",1,2,11077,"blue","Fiction",2,3,3,1,1,1305,2,"Female","Heterosexual"
"S040","Opposite-sex_couple_047_v",2,2,11000,"blue","Fiction",0,1,3,1,1,1504,1,"Female","Heterosexual"
"S040","Opposite-sex_couple_018_h",3,2,8031,"blue","Fiction",1,1,2,1,1,1804,3,"Female","Heterosexual"
"S040","Opposite-sex_couple_035_h",4,2,7394,"green","Reality",1,3,3,1,1,2679,-2,"Female","Heterosexual"
"S040","Male_010_v",5,2,5805,"green","Reality",2,3,4,1,1,2166,2,"Female","Heterosexual"
"S040","Male_009_v",6,2,7676,"blue","Fiction",1,2,3,1,1,1444,0,"Female","Heterosexual"
"S040","Male_021_h",7,2,5843,"blue","Fiction",1,2,3,1,1,1078,1,"Female","Heterosexual"
"S040","Male_008_v",8,2,11791,"blue","Fiction",2,4,3,1,1,2525,1,"Female","Heterosexual"
"S040","Male_018_v",9,2,6254,"green","Reality",1,2,3,1,1,1924,-2,"Female","Heterosexual"
"S040","Male_014_v",10,2,5573,"green","Reality",4,4,4,1,1,1748,-2,"Female","Heterosexual"
"S040","Male_015_v",11,2,7095,"green","Reality",3,3,3,1,1,2477,-1,"Female","Heterosexual"
"S040","Male_013_v",12,2,4534,"blue","Fiction",2,2,3,1,1,1690,0,"Female","Heterosexual"
"S040","Male_016_v",13,2,5336,"green","Reality",4,4,4,1,1,3040,0,"Female","Heterosexual"
"S040","Opposite-sex_couple_013_h",14,2,8933,"green","Reality",1,1,2,1,1,2183,1,"Female","Heterosexual"
"S040","Opposite-sex_couple_025_h",15,2,7348,"green","Reality",5,5,4,1,1,1881,2,"Female","Heterosexual"
"S040","Male_007_h",16,2,4749,"green","Reality",3,3,3,1,1,1297,3,"Female","Heterosexual"
"S040","Male_025_v",17,2,6829,"green","Reality",0,1,3,1,1,1984,1,"Female","Heterosexual"
"S040","Male_004_v",18,2,5824,"blue","Fiction",2,2,3,1,1,1301,0,"Female","Heterosexual"
"S040","Opposite-sex_couple_007_h",19,2,6861,"green","Reality",1,2,3,1,1,1621,1,"Female","Heterosexual"
"S040","Male_012_h",20,2,4787,"green","Reality",3,3,3,1,1,1367,2,"Female","Heterosexual"
"S040","Opposite-sex_couple_005_h",21,2,5294,"blue","Fiction",5,4,4,1,1,2672,2,"Female","Heterosexual"
"S040","Male_001_v",22,2,4210,"green","Reality",0,0,1,1,1,1802,2,"Female","Heterosexual"
"S040","Male_005_v",23,2,8099,"blue","Fiction",0,1,2,1,1,1442,-3,"Female","Heterosexual"
"S040","Opposite-sex_couple_001_v",24,2,5589,"green","Reality",1,2,3,1,1,1855,-3,"Female","Heterosexual"
"S040","Opposite-sex_couple_014_h",25,2,6332,"blue","Fiction",2,2,3,1,1,2345,1,"Female","Heterosexual"
"S040","Opposite-sex_couple_019_v",26,2,5136,"blue","Fiction",0,0,3,1,1,1289,-2,"Female","Heterosexual"
"S040","Opposite-sex_couple_048_h",27,2,5955,"green","Reality",4,4,4,1,1,1490,1,"Female","Heterosexual"
"S040","Male_019_h",28,2,7698,"blue","Fiction",1,2,3,1,1,1502,2,"Female","Heterosexual"
"S040","Opposite-sex_couple_020_h",29,2,6317,"blue","Fiction",3,3,3,1,1,1303,-3,"Female","Heterosexual"
"S040","Male_002_v",30,2,4242,"blue","Fiction",3,3,3,1,1,1395,3,"Female","Heterosexual"
"S040","Opposite-sex_couple_017_v",31,2,5031,"green","Reality",3,4,4,1,1,1936,1,"Female","Heterosexual"
"S040","Opposite-sex_couple_042_h",32,2,4577,"green","Reality",1,1,3,1,1,1452,-1,"Female","Heterosexual"
"S040","Male_017_v",33,2,4855,"green","Reality",0,0,2,1,1,2434,-3,"Female","Heterosexual"
"S040","Male_011_v",34,2,4522,"blue","Fiction",2,2,3,1,1,1299,-2,"Female","Heterosexual"
"S040","Male_022_v",35,2,5463,"green","Reality",3,4,3,1,1,1328,-3,"Female","Heterosexual"
"S040","Opposite-sex_couple_022_v",36,2,4998,"green","Reality",1,2,3,1,1,1181,1,"Female","Heterosexual"
"S040","Male_023_v",37,2,5682,"green","Reality",1,2,3,1,1,2061,2,"Female","Heterosexual"
"S040","Opposite-sex_couple_012_h",38,2,5593,"blue","Fiction",2,2,3,1,1,2403,1,"Female","Heterosexual"
"S040","Opposite-sex_couple_002_h",39,2,4491,"green","Reality",4,5,4,1,1,1360,-1,"Female","Heterosexual"
"S040","Male_020_v",40,2,4540,"blue","Fiction",1,2,3,1,1,1739,-1,"Female","Heterosexual"
"S040","Opposite-sex_couple_024_h",41,2,3892,"green","Reality",4,4,4,1,1,2991,1,"Female","Heterosexual"
"S040","Opposite-sex_couple_023_h",42,2,6469,"blue","Fiction",1,2,3,1,1,1245,-3,"Female","Heterosexual"
"S040","Opposite-sex_couple_015_h",43,2,3877,"blue","Fiction",3,4,3,1,1,1915,-1,"Female","Heterosexual"
"S040","Opposite-sex_couple_033_v",44,2,5500,"blue","Fiction",3,4,4,1,1,1397,1,"Female","Heterosexual"
"S040","Male_024_h",45,2,5972,"green","Reality",2,2,3,1,1,1676,-1,"Female","Heterosexual"
"S040","Opposite-sex_couple_009_h",46,2,6153,"blue","Fiction",2,2,3,1,1,1759,2,"Female","Heterosexual"
"S040","Opposite-sex_couple_011_h",47,2,4471,"green","Reality",1,2,3,1,1,1666,1,"Female","Heterosexual"
"S040","Opposite-sex_couple_008_h",48,2,8959,"green","Reality",3,4,4,1,1,1105,2,"Female","Heterosexual"
"S040","Male_006_v",49,2,4947,"blue","Fiction",0,0,3,1,1,1177,2,"Female","Heterosexual"
"S040","Male_003_v",50,2,5766,"blue","Fiction",1,1,3,1,1,2110,1,"Female","Heterosexual"
"S031","Opposite-sex_couple_017_v",1,2,15809,"green","Reality",4,5,4,1,1,2712,2,"Female","Heterosexual"
"S031","Opposite-sex_couple_018_h",2,2,14160,"green","Reality",5,5,5,1,1,1981,2,"Female","Heterosexual"
"S031","Male_001_v",3,2,7836,"green","Reality",0,0,0,1,1,3223,-2,"Female","Heterosexual"
"S031","Male_009_v",4,2,12350,"green","Reality",3,3,3,1,1,1414,3,"Female","Heterosexual"
"S031","Male_003_v",5,2,12346,"green","Reality",3,5,3,1,1,4444,3,"Female","Heterosexual"
"S031","Opposite-sex_couple_022_v",6,2,7984,"green","Reality",5,5,4,1,1,2573,-3,"Female","Heterosexual"
"S031","Opposite-sex_couple_012_h",7,2,8017,"red","Fiction",6,6,6,1,1,5719,3,"Female","Heterosexual"
"S031","Male_013_v",8,2,12229,"green","Reality",1,1,2,1,1,3971,0,"Female","Heterosexual"
"S031","Opposite-sex_couple_023_h",9,2,5249,"red","Fiction",5,5,5,1,1,4183,3,"Female","Heterosexual"
"S031","Male_015_v",10,2,7956,"red","Fiction",1,1,1,1,1,1562,3,"Female","Heterosexual"
"S031","Male_011_v",11,2,4050,"red","Fiction",0,0,0,1,1,2553,-3,"Female","Heterosexual"
"S031","Male_007_h",12,2,5621,"red","Fiction",0,0,0,1,1,3926,1,"Female","Heterosexual"
"S031","Opposite-sex_couple_047_v",13,2,7160,"green","Reality",3,3,2,1,1,1798,3,"Female","Heterosexual"
"S031","Opposite-sex_couple_009_h",14,2,4566,"green","Reality",5,5,5,1,1,1681,2,"Female","Heterosexual"
"S031","Opposite-sex_couple_005_h",15,2,5262,"red","Fiction",6,6,6,1,1,4100,2,"Female","Heterosexual"
"S031","Opposite-sex_couple_042_h",16,2,4454,"red","Fiction",4,4,6,1,1,2045,2,"Female","Heterosexual"
"S031","Opposite-sex_couple_013_h",17,2,4407,"green","Reality",0,0,0,1,1,1321,-3,"Female","Heterosexual"
"S031","Male_012_h",18,2,5885,"green","Reality",3,5,4,1,1,2164,3,"Female","Heterosexual"
"S031","Opposite-sex_couple_048_h",19,2,4983,"green","Reality",5,5,4,1,1,7768,0,"Female","Heterosexual"
"S031","Opposite-sex_couple_014_h",20,2,7553,"green","Reality",5,6,5,1,1,4069,0,"Female","Heterosexual"
"S031","Opposite-sex_couple_016_v",21,2,6148,"green","Reality",3,5,4,1,1,1663,2,"Female","Heterosexual"
"S031","Opposite-sex_couple_035_h",22,2,6911,"red","Fiction",5,5,5,1,1,5599,3,"Female","Heterosexual"
"S031","Male_019_h",23,2,5186,"green","Reality",0,0,0,1,1,2751,3,"Female","Heterosexual"
"S031","Male_021_h",24,2,5954,"green","Reality",2,5,4,1,1,2305,-3,"Female","Heterosexual"
"S031","Male_018_v",25,2,14398,"green","Reality",0,1,3,1,1,3252,0,"Female","Heterosexual"
"S031","Male_016_v",26,2,6674,"red","Fiction",0,0,0,1,1,1796,3,"Female","Heterosexual"
"S031","Opposite-sex_couple_024_h",27,2,7333,"red","Fiction",3,5,5,1,1,3128,2,"Female","Heterosexual"
"S031","Male_006_v",28,2,4641,"red","Fiction",0,0,0,1,1,3583,-2,"Female","Heterosexual"
"S031","Opposite-sex_couple_020_h",29,2,5337,"red","Fiction",5,5,5,1,1,2373,2,"Female","Heterosexual"
"S031","Opposite-sex_couple_019_v",30,2,11878,"green","Reality",2,6,6,1,1,1863,3,"Female","Heterosexual"
"S031","Male_025_v",31,2,15292,"red","Fiction",2,2,2,1,1,3178,-1,"Female","Heterosexual"
"S031","Male_008_v",32,2,4284,"green","Reality",0,0,0,1,1,2686,-3,"Female","Heterosexual"
"S031","Male_004_v",33,2,8383,"green","Reality",1,1,1,1,1,1990,3,"Female","Heterosexual"
"S031","Male_020_v",34,2,9490,"green","Reality",3,3,3,1,1,1955,-3,"Female","Heterosexual"
"S031","Opposite-sex_couple_008_h",35,2,4946,"green","Reality",5,5,5,1,1,2337,2,"Female","Heterosexual"
"S031","Opposite-sex_couple_002_h",36,2,4055,"red","Fiction",6,6,6,1,1,1738,2,"Female","Heterosexual"
"S031","Male_022_v",37,2,4226,"red","Fiction",0,0,0,1,1,1698,-3,"Female","Heterosexual"
"S031","Male_005_v",38,2,4602,"red","Fiction",0,0,0,1,1,1755,-3,"Female","Heterosexual"
"S031","Opposite-sex_couple_025_h",39,2,4328,"green","Reality",6,6,6,1,1,1632,3,"Female","Heterosexual"
"S031","Male_010_v",40,2,11538,"green","Reality",0,0,3,1,1,2536,2,"Female","Heterosexual"
"S031","Male_017_v",41,2,3978,"red","Fiction",0,0,0,1,1,2653,2,"Female","Heterosexual"
"S031","Opposite-sex_couple_033_v",42,2,4231,"red","Fiction",5,5,5,1,1,1705,2,"Female","Heterosexual"
"S031","Male_014_v",43,2,5160,"red","Fiction",0,0,0,1,1,3051,-3,"Female","Heterosexual"
"S031","Male_023_v",44,2,7731,"red","Fiction",1,2,3,1,1,2269,-2,"Female","Heterosexual"
"S031","Opposite-sex_couple_007_h",45,2,4721,"green","Reality",5,5,4,1,1,1706,3,"Female","Heterosexual"
"S031","Male_002_v",46,2,5668,"green","Reality",0,0,0,1,1,2776,-1,"Female","Heterosexual"
"S031","Opposite-sex_couple_015_h",47,2,5317,"red","Fiction",4,4,4,1,1,1822,3,"Female","Heterosexual"
"S031","Opposite-sex_couple_011_h",48,2,5303,"red","Fiction",4,5,5,1,1,1467,3,"Female","Heterosexual"
"S031","Opposite-sex_couple_001_v",49,2,5768,"red","Fiction",5,5,5,1,1,5336,3,"Female","Heterosexual"
"S031","Male_024_h",50,2,5910,"red","Fiction",3,5,5,1,1,1936,3,"Female","Heterosexual"
"S067","Female_014_v",1,2,13461,"blue","Fiction",1,1,1,1,1,2552,-3,"Male","Heterosexual"
"S067","Opposite-sex_couple_023_h",2,2,6215,"green","Reality",5,5,5,1,1,1600,-3,"Male","Heterosexual"
"S067","Female_018_h",3,2,5625,"blue","Fiction",6,6,6,1,1,1172,3,"Male","Heterosexual"
"S067","Opposite-sex_couple_013_h",4,2,4899,"green","Reality",0,0,0,1,1,4068,3,"Male","Heterosexual"
"S067","Opposite-sex_couple_024_h",5,2,8549,"blue","Fiction",3,2,4,1,1,2183,2,"Male","Heterosexual"
"S067","Opposite-sex_couple_011_h",6,2,5458,"blue","Fiction",1,2,1,1,1,1796,-3,"Male","Heterosexual"
"S067","Opposite-sex_couple_047_v",7,2,4986,"green","Reality",0,0,0,1,1,1844,0,"Male","Heterosexual"
"S067","Opposite-sex_couple_017_v",8,2,5814,"blue","Fiction",2,2,2,1,1,1911,-3,"Male","Heterosexual"
"S067","Opposite-sex_couple_014_h",9,2,6647,"green","Reality",6,5,5,1,1,1253,3,"Male","Heterosexual"
"S067","Female_007_v",10,2,7107,"blue","Fiction",1,0,0,1,1,1522,-3,"Male","Heterosexual"
"S067","Female_013_h",11,2,5023,"green","Reality",6,6,6,1,1,1270,3,"Male","Heterosexual"
"S067","Opposite-sex_couple_009_h",12,2,5189,"green","Reality",6,6,6,1,1,1897,3,"Male","Heterosexual"
"S067","Opposite-sex_couple_001_v",13,2,6430,"green","Reality",0,0,0,1,1,3219,0,"Male","Heterosexual"
"S067","Opposite-sex_couple_042_h",14,2,6373,"blue","Fiction",0,0,0,1,1,1279,-3,"Male","Heterosexual"
"S067","Opposite-sex_couple_025_h",15,2,5719,"green","Reality",6,6,6,1,1,1873,3,"Male","Heterosexual"
"S067","Female_011_h",16,2,7905,"blue","Fiction",3,4,3,1,1,1563,-3,"Male","Heterosexual"
"S067","Opposite-sex_couple_015_h",17,2,5191,"green","Reality",1,1,0,1,1,1785,-3,"Male","Heterosexual"
"S067","Opposite-sex_couple_048_h",18,2,6934,"blue","Fiction",0,0,0,1,1,1819,0,"Male","Heterosexual"
"S067","Female_016_h",19,2,7385,"green","Reality",4,3,4,1,1,2072,1,"Male","Heterosexual"
"S067","Female_012_v",20,2,5188,"green","Reality",3,3,3,1,1,1591,-3,"Male","Heterosexual"
"S067","Opposite-sex_couple_035_h",21,2,5390,"blue","Fiction",0,0,0,1,1,1650,0,"Male","Heterosexual"
"S067","Female_006_v",22,2,5421,"green","Reality",6,6,6,1,1,1598,3,"Male","Heterosexual"
"S067","Opposite-sex_couple_019_v",23,2,5698,"green","Reality",0,2,2,1,1,1800,-3,"Male","Heterosexual"
"S067","Female_021_h",24,2,4902,"green","Reality",6,5,6,1,1,6927,0,"Male","Heterosexual"
"S067","Opposite-sex_couple_033_v",25,2,4607,"blue","Fiction",0,0,0,1,1,1271,3,"Male","Heterosexual"
"S067","Opposite-sex_couple_022_v",26,2,4638,"green","Reality",0,0,0,1,1,1677,0,"Male","Heterosexual"
"S067","Female_003_v",27,2,5804,"blue","Fiction",0,0,0,1,1,1192,-3,"Male","Heterosexual"
"S067","Opposite-sex_couple_020_h",28,2,4626,"blue","Fiction",2,2,2,1,1,1481,-3,"Male","Heterosexual"
"S067","Female_001_h",29,2,6533,"blue","Fiction",4,4,4,1,1,1370,3,"Male","Heterosexual"
"S067","Opposite-sex_couple_002_h",30,2,5193,"blue","Fiction",0,0,0,1,1,1800,-3,"Male","Heterosexual"
"S067","Female_002_h",31,2,5153,"blue","Fiction",6,6,6,1,1,2040,3,"Male","Heterosexual"
"S067","Female_023_h",32,2,4568,"green","Reality",4,4,4,1,1,1700,-3,"Male","Heterosexual"
"S067","Female_020_v",33,2,5423,"green","Reality",6,6,6,1,1,1675,3,"Male","Heterosexual"
"S067","Opposite-sex_couple_005_h",34,2,4995,"green","Reality",6,6,6,1,1,1379,3,"Male","Heterosexual"
"S067","Opposite-sex_couple_007_h",35,2,4925,"blue","Fiction",0,0,0,1,1,3959,0,"Male","Heterosexual"
"S067","Female_010_h",36,2,7270,"green","Reality",3,3,3,1,1,1625,-3,"Male","Heterosexual"
"S067","Opposite-sex_couple_012_h",37,2,4927,"green","Reality",5,6,6,1,1,1644,3,"Male","Heterosexual"
"S067","Female_025_h",38,2,4850,"green","Reality",3,3,3,1,1,1316,3,"Male","Heterosexual"
"S067","Female_022_h",39,2,5796,"green","Reality",6,6,6,1,1,1807,3,"Male","Heterosexual"
"S067","Female_008_v",40,2,5357,"blue","Fiction",6,6,6,1,1,1693,-3,"Male","Heterosexual"
"S067","Female_019_h",41,2,6857,"blue","Fiction",4,5,5,1,1,1783,0,"Male","Heterosexual"
"S067","Opposite-sex_couple_018_h",42,2,5047,"blue","Fiction",6,6,6,1,1,1865,3,"Male","Heterosexual"
"S067","Female_017_v",43,2,4933,"green","Reality",5,5,5,1,1,2345,0,"Male","Heterosexual"
"S067","Opposite-sex_couple_016_v",44,2,4539,"green","Reality",2,2,2,1,1,1909,2,"Male","Heterosexual"
"S067","Opposite-sex_couple_008_h",45,2,4473,"blue","Fiction",4,4,4,1,1,1144,-3,"Male","Heterosexual"
"S067","Female_005_v",46,2,4826,"blue","Fiction",2,2,2,1,1,1683,3,"Male","Heterosexual"
"S067","Female_004_v",47,2,5796,"green","Reality",1,1,1,1,1,1964,-3,"Male","Heterosexual"
"S067","Female_009_h",48,2,4529,"green","Reality",5,5,5,1,1,1784,3,"Male","Heterosexual"
"S067","Female_015_v",49,2,4412,"blue","Fiction",1,1,1,1,1,1471,-3,"Male","Heterosexual"
"S067","Female_024_v",50,2,4970,"blue","Fiction",1,1,1,1,1,1479,-3,"Male","Heterosexual"
"S072","Opposite-sex_couple_033_v",1,2,17366,"red","Reality",3,5,4,1,1,7801,-2,"Female","Bisexual"
"S072","Female_015_v",2,2,6840,"blue","Fiction",4,5,4,1,1,1631,2,"Female","Bisexual"
"S072","Female_013_h",3,2,6743,"red","Reality",4,4,4,1,1,2086,-1,"Female","Bisexual"
"S072","Female_017_v",4,2,7862,"blue","Fiction",3,3,4,1,1,3008,0,"Female","Bisexual"
"S072","Female_018_h",5,2,9034,"red","Reality",5,4,5,1,1,2382,-1,"Female","Bisexual"
"S072","Opposite-sex_couple_008_h",6,2,6552,"blue","Fiction",5,5,5,1,1,2410,2,"Female","Bisexual"
"S072","Female_010_h",7,2,7027,"blue","Fiction",3,3,3,1,1,1695,-1,"Female","Bisexual"
"S072","Opposite-sex_couple_047_v",8,2,6758,"blue","Fiction",3,3,3,1,1,1969,-1,"Female","Bisexual"
"S072","Opposite-sex_couple_007_h",9,2,5193,"red","Reality",3,3,3,1,1,1384,2,"Female","Bisexual"
"S072","Opposite-sex_couple_035_h",10,2,10174,"red","Reality",3,4,3,1,1,2470,1,"Female","Bisexual"
"S072","Female_001_h",11,2,7015,"blue","Fiction",4,4,4,1,1,3336,-1,"Female","Bisexual"
"S072","Opposite-sex_couple_016_v",12,2,5784,"blue","Fiction",4,4,4,1,1,2244,1,"Female","Bisexual"
"S072","Female_006_v",13,2,5574,"red","Reality",3,3,3,1,1,1550,1,"Female","Bisexual"
"S072","Female_008_v",14,2,5692,"blue","Fiction",3,3,3,1,1,2051,-1,"Female","Bisexual"
"S072","Female_014_v",15,2,6163,"blue","Fiction",4,5,4,1,1,1340,1,"Female","Bisexual"
"S072","Female_007_v",16,2,6654,"red","Reality",3,2,3,1,1,3945,1,"Female","Bisexual"
"S072","Opposite-sex_couple_009_h",17,2,5532,"blue","Fiction",4,4,4,1,1,1890,1,"Female","Bisexual"
"S072","Female_002_h",18,2,7470,"red","Reality",5,4,4,1,1,2518,3,"Female","Bisexual"
"S072","Opposite-sex_couple_023_h",19,2,6563,"red","Reality",5,4,3,1,1,2400,1,"Female","Bisexual"
"S072","Opposite-sex_couple_014_h",20,2,7184,"red","Reality",6,5,5,1,1,2503,2,"Female","Bisexual"
"S072","Female_004_v",21,2,5007,"red","Reality",4,3,3,1,1,2105,0,"Female","Bisexual"
"S072","Opposite-sex_couple_020_h",22,2,5453,"red","Reality",4,4,4,1,1,1659,2,"Female","Bisexual"
"S072","Opposite-sex_couple_025_h",23,2,5362,"blue","Fiction",6,6,6,1,1,2840,1,"Female","Bisexual"
"S072","Female_016_h",24,2,5361,"blue","Fiction",4,5,5,1,1,1896,-1,"Female","Bisexual"
"S072","Female_024_v",25,2,4914,"red","Reality",3,3,2,1,1,2086,0,"Female","Bisexual"
"S072","Opposite-sex_couple_001_v",26,2,4875,"red","Reality",3,3,3,1,1,2614,3,"Female","Bisexual"
"S072","Opposite-sex_couple_048_h",27,2,5412,"red","Reality",4,4,4,1,1,2568,1,"Female","Bisexual"
"S072","Opposite-sex_couple_019_v",28,2,5472,"blue","Fiction",3,4,4,1,1,2137,-1,"Female","Bisexual"
"S072","Female_009_h",29,2,6426,"red","Reality",5,4,5,1,1,2535,0,"Female","Bisexual"
"S072","Opposite-sex_couple_042_h",30,2,4919,"blue","Fiction",3,3,3,1,1,3596,2,"Female","Bisexual"
"S072","Female_003_v",31,2,5389,"red","Reality",3,4,3,1,1,1296,-1,"Female","Bisexual"
"S072","Opposite-sex_couple_002_h",32,2,5947,"blue","Fiction",5,5,4,1,1,3604,2,"Female","Bisexual"
"S072","Female_021_h",33,2,5572,"blue","Fiction",5,5,5,1,1,4089,-2,"Female","Bisexual"
"S072","Female_011_h",34,2,5761,"red","Reality",3,3,2,1,1,1592,-1,"Female","Bisexual"
"S072","Female_020_v",35,2,5721,"blue","Fiction",5,4,5,1,1,1667,1,"Female","Bisexual"
"S072","Female_022_h",36,2,9016,"red","Reality",5,6,4,1,1,2028,-3,"Female","Bisexual"
"S072","Opposite-sex_couple_018_h",37,2,5443,"red","Reality",6,6,6,1,1,2844,3,"Female","Bisexual"
"S072","Female_005_v",38,2,5984,"red","Reality",4,4,5,1,1,1553,1,"Female","Bisexual"
"S072","Opposite-sex_couple_012_h",39,2,5533,"blue","Fiction",5,5,5,1,1,2651,2,"Female","Bisexual"
"S072","Opposite-sex_couple_011_h",40,2,5227,"red","Reality",4,3,3,1,1,2483,2,"Female","Bisexual"
"S072","Opposite-sex_couple_015_h",41,2,6170,"blue","Fiction",4,4,4,1,1,1596,1,"Female","Bisexual"
"S072","Female_025_h",42,2,9431,"blue","Fiction",4,3,4,1,1,2435,-1,"Female","Bisexual"
"S072","Opposite-sex_couple_013_h",43,2,4880,"blue","Fiction",4,3,3,1,1,2446,-1,"Female","Bisexual"
"S072","Opposite-sex_couple_022_v",44,2,4604,"red","Reality",3,3,3,1,1,2054,-1,"Female","Bisexual"
"S072","Female_019_h",45,2,5185,"red","Reality",4,3,3,1,1,1366,-1,"Female","Bisexual"
"S072","Opposite-sex_couple_024_h",46,2,5078,"red","Reality",5,4,4,1,1,3957,0,"Female","Bisexual"
"S072","Opposite-sex_couple_017_v",47,2,5305,"red","Reality",4,4,3,1,1,1121,0,"Female","Bisexual"
"S072","Female_012_v",48,2,4569,"blue","Fiction",3,3,4,1,1,1884,2,"Female","Bisexual"
"S072","Female_023_h",49,2,7407,"blue","Fiction",5,5,5,1,1,1614,1,"Female","Bisexual"
"S072","Opposite-sex_couple_005_h",50,2,7734,"blue","Fiction",6,6,6,1,1,2544,3,"Female","Bisexual"
"S008","Opposite-sex_couple_019_v",1,2,34494,"blue","Reality",2,4,5,1,1,4653,1,"Male","Heterosexual"
"S008","Opposite-sex_couple_007_h",2,2,9310,"green","Fiction",4,4,5,1,1,3226,-3,"Male","Heterosexual"
"S008","Female_022_h",3,2,9815,"green","Fiction",6,5,6,1,1,2351,-1,"Male","Heterosexual"
"S008","Opposite-sex_couple_042_h",4,2,8643,"green","Fiction",4,3,4,1,1,1898,2,"Male","Heterosexual"
"S008","Female_004_v",5,2,8427,"green","Fiction",4,3,5,1,1,1860,2,"Male","Heterosexual"
"S008","Female_013_h",6,2,8463,"blue","Reality",5,5,6,1,1,2900,-3,"Male","Heterosexual"
"S008","Female_006_v",7,2,5852,"green","Fiction",5,4,5,1,1,2225,2,"Male","Heterosexual"
"S008","Opposite-sex_couple_008_h",8,2,4797,"green","Fiction",6,5,6,1,1,2778,0,"Male","Heterosexual"
"S008","Female_007_v",9,2,6270,"blue","Reality",5,4,5,1,1,3138,2,"Male","Heterosexual"
"S008","Female_023_h",10,2,7524,"blue","Reality",4,4,5,1,1,3174,0,"Male","Heterosexual"
"S008","Female_018_h",11,2,6478,"green","Fiction",5,4,5,1,1,2572,1,"Male","Heterosexual"
"S008","Female_001_h",12,2,4877,"blue","Reality",6,5,6,1,1,2523,-1,"Male","Heterosexual"
"S008","Female_021_h",13,2,7488,"green","Fiction",5,5,6,1,1,2093,1,"Male","Heterosexual"
"S008","Female_015_v",14,2,6724,"blue","Reality",4,5,4,1,1,9213,1,"Male","Heterosexual"
"S008","Opposite-sex_couple_024_h",15,2,10443,"blue","Reality",6,5,6,1,1,2138,2,"Male","Heterosexual"
"S008","Female_024_v",16,2,5289,"green","Fiction",5,4,5,1,1,2033,0,"Male","Heterosexual"
"S008","Opposite-sex_couple_014_h",17,2,6407,"green","Fiction",6,5,6,1,1,4030,3,"Male","Heterosexual"
"S008","Opposite-sex_couple_020_h",18,2,7387,"blue","Reality",5,5,6,1,1,2128,2,"Male","Heterosexual"
"S008","Opposite-sex_couple_012_h",19,2,6461,"green","Fiction",6,4,6,1,1,2272,2,"Male","Heterosexual"
"S008","Opposite-sex_couple_016_v",20,2,8909,"green","Fiction",5,5,4,1,1,2246,1,"Male","Heterosexual"
"S008","Female_020_v",21,2,5793,"blue","Reality",5,4,5,1,1,2267,2,"Male","Heterosexual"
"S008","Female_011_h",22,2,5091,"blue","Reality",4,5,5,1,1,2794,1,"Male","Heterosexual"
"S008","Opposite-sex_couple_001_v",23,2,5178,"blue","Reality",4,5,4,1,1,1440,2,"Male","Heterosexual"
"S008","Opposite-sex_couple_035_h",24,2,5284,"blue","Reality",4,4,5,1,1,6010,1,"Male","Heterosexual"
"S008","Opposite-sex_couple_033_v",25,2,6311,"blue","Reality",5,5,4,1,1,1731,0,"Male","Heterosexual"
"S008","Opposite-sex_couple_025_h",26,2,8083,"green","Fiction",6,5,6,1,1,3071,0,"Male","Heterosexual"
"S008","Opposite-sex_couple_009_h",27,2,5553,"green","Fiction",6,5,6,1,1,2661,2,"Male","Heterosexual"
"S008","Female_008_v",28,2,6996,"blue","Reality",6,5,6,1,1,1819,1,"Male","Heterosexual"
"S008","Opposite-sex_couple_013_h",29,2,5312,"green","Fiction",5,4,6,1,1,1960,-1,"Male","Heterosexual"
"S008","Female_009_h",30,2,6987,"green","Fiction",6,5,5,1,1,1962,-1,"Male","Heterosexual"
"S008","Female_014_v",31,2,4159,"blue","Reality",4,5,4,1,1,1992,2,"Male","Heterosexual"
"S008","Opposite-sex_couple_047_v",32,2,5521,"green","Fiction",5,4,5,1,1,1620,1,"Male","Heterosexual"
"S008","Female_017_v",33,2,7417,"blue","Reality",6,5,5,1,1,2916,-1,"Male","Heterosexual"
"S008","Opposite-sex_couple_011_h",34,2,6987,"blue","Reality",6,5,6,1,1,5024,0,"Male","Heterosexual"
"S008","Female_003_v",35,2,11019,"green","Fiction",6,5,5,1,1,1769,2,"Male","Heterosexual"
"S008","Opposite-sex_couple_022_v",36,2,7743,"blue","Reality",5,4,6,1,1,3739,1,"Male","Heterosexual"
"S008","Female_010_h",37,2,5813,"green","Fiction",6,5,5,1,1,1910,-2,"Male","Heterosexual"
"S008","Female_002_h",38,2,4725,"blue","Reality",6,5,6,1,1,4611,-1,"Male","Heterosexual"
"S008","Female_012_v",39,2,5699,"green","Fiction",5,5,6,1,1,1922,-1,"Male","Heterosexual"
"S008","Opposite-sex_couple_002_h",40,2,5762,"blue","Reality",6,6,5,1,1,2243,2,"Male","Heterosexual"
"S008","Opposite-sex_couple_017_v",41,2,6608,"green","Fiction",6,5,5,1,1,1365,2,"Male","Heterosexual"
"S008","Female_005_v",42,2,7639,"green","Fiction",4,3,4,1,1,3765,2,"Male","Heterosexual"
"S008","Opposite-sex_couple_015_h",43,2,7094,"blue","Reality",5,5,6,1,1,2503,2,"Male","Heterosexual"
"S008","Opposite-sex_couple_018_h",44,2,8822,"green","Fiction",6,6,6,1,1,2405,1,"Male","Heterosexual"
"S008","Opposite-sex_couple_005_h",45,2,7078,"blue","Reality",6,6,6,1,1,7384,1,"Male","Heterosexual"
"S008","Female_025_h",46,2,4623,"green","Fiction",5,6,5,1,1,2001,-1,"Male","Heterosexual"
"S008","Opposite-sex_couple_048_h",47,2,5931,"blue","Reality",5,6,5,1,1,2233,2,"Male","Heterosexual"
"S008","Opposite-sex_couple_023_h",48,2,5559,"blue","Reality",6,6,6,1,1,2156,1,"Male","Heterosexual"
"S008","Female_019_h",49,2,4592,"blue","Reality",5,4,5,1,1,2299,2,"Male","Heterosexual"
"S008","Female_016_h",50,2,5212,"blue","Reality",4,6,3,1,1,1724,1,"Male","Heterosexual"
"S049","Female_020_v",1,2,15825,"green","Reality",5,5,3,1,1,2044,2,"Female","Homosexual"
"S049","Female_023_h",2,2,4512,"blue","Fiction",3,3,3,1,1,1224,-2,"Female","Homosexual"
"S049","Female_002_h",3,2,4509,"green","Reality",5,5,5,1,1,1206,-3,"Female","Homosexual"
"S049","Female_007_v",4,2,4547,"blue","Fiction",1,1,1,1,1,1570,-2,"Female","Homosexual"
"S049","Female_018_h",5,2,3657,"green","Reality",5,5,5,1,1,6245,3,"Female","Homosexual"
"S049","Female_019_h",6,2,4046,"green","Reality",4,4,4,1,1,1373,-2,"Female","Homosexual"
"S049","Female_couple_015_h",7,2,8545,"blue","Fiction",5,5,5,1,1,1231,-3,"Female","Homosexual"
"S049","Female_009_h",8,2,3888,"blue","Fiction",5,5,5,1,1,1413,-2,"Female","Homosexual"
"S049","Female_015_v",9,2,2930,"blue","Fiction",2,2,2,1,1,1234,0,"Female","Homosexual"
"S049","Female_couple_022_h",10,2,2877,"green","Reality",3,3,3,1,1,1237,2,"Female","Homosexual"
"S049","Female_couple_028_h",11,2,2638,"green","Reality",2,2,2,1,1,1000,2,"Female","Homosexual"
"S049","Female_025_h",12,2,3490,"green","Reality",2,2,2,1,1,1128,-3,"Female","Homosexual"
"S049","Female_couple_040_h",13,2,2468,"blue","Fiction",3,3,3,1,1,1324,2,"Female","Homosexual"
"S049","Female_couple_009_v",14,2,3539,"blue","Fiction",6,6,6,1,1,1293,-2,"Female","Homosexual"
"S049","Female_couple_024_h",15,2,3565,"green","Reality",4,4,4,1,1,1589,-2,"Female","Homosexual"
"S049","Female_001_h",16,2,12726,"blue","Fiction",3,3,3,1,1,1610,3,"Female","Homosexual"
"S049","Female_couple_014_v",17,2,7462,"green","Reality",5,5,5,1,1,1445,-3,"Female","Homosexual"
"S049","Female_couple_013_h",18,2,3800,"green","Reality",2,2,2,1,1,1140,2,"Female","Homosexual"
"S049","Female_010_h",19,2,3067,"blue","Fiction",2,2,2,1,1,1308,-2,"Female","Homosexual"
"S049","Female_024_v",20,2,3018,"blue","Fiction",2,2,2,1,1,1451,-1,"Female","Homosexual"
"S049","Female_couple_032_v",21,2,3101,"green","Reality",5,5,5,1,1,1647,-1,"Female","Homosexual"
"S049","Female_013_h",22,2,2830,"blue","Fiction",5,5,5,1,1,1148,-3,"Female","Homosexual"
"S049","Female_021_h",23,2,8973,"green","Reality",2,2,2,1,1,1050,-2,"Female","Homosexual"
"S049","Female_couple_023_h",24,2,4558,"blue","Fiction",5,5,5,1,1,1170,-1,"Female","Homosexual"
"S049","Female_couple_037_v",25,2,3772,"green","Reality",6,6,6,1,1,1215,3,"Female","Homosexual"
"S049","Female_017_v",26,2,3565,"green","Reality",3,3,3,1,1,1271,-3,"Female","Homosexual"
"S049","Female_couple_008_v",27,2,2942,"blue","Fiction",5,5,5,1,1,1270,-2,"Female","Homosexual"
"S049","Female_008_v",28,2,2358,"green","Reality",2,2,2,1,1,1075,2,"Female","Homosexual"
"S049","Female_couple_002_v",29,2,2510,"green","Reality",4,4,4,1,1,1224,3,"Female","Homosexual"
"S049","Female_couple_021_h",30,2,3315,"blue","Fiction",1,1,1,1,1,1280,-2,"Female","Homosexual"
"S049","Female_014_v",31,2,2866,"blue","Fiction",2,2,2,1,1,1451,-3,"Female","Homosexual"
"S049","Female_016_h",32,2,3101,"green","Reality",2,2,2,1,1,1442,-3,"Female","Homosexual"
"S049","Female_couple_012_v",33,2,2833,"green","Reality",2,2,2,1,1,922,2,"Female","Homosexual"
"S049","Female_couple_003_h",34,2,3095,"blue","Fiction",4,4,5,1,1,1228,3,"Female","Homosexual"
"S049","Female_couple_048_h",35,2,3474,"blue","Fiction",5,5,5,1,1,1109,2,"Female","Homosexual"
"S049","Female_003_v",36,2,2988,"green","Reality",3,3,3,1,1,1012,-1,"Female","Homosexual"
"S049","Female_006_v",37,2,3015,"green","Reality",5,5,5,1,1,1176,2,"Female","Homosexual"
"S049","Female_couple_038_h",38,2,4429,"green","Reality",3,3,3,1,1,1642,2,"Female","Homosexual"
"S049","Female_012_v",39,2,2872,"blue","Fiction",3,3,3,1,1,1762,-3,"Female","Homosexual"
"S049","Female_022_h",40,2,9605,"blue","Fiction",5,5,5,1,1,2557,2,"Female","Homosexual"
"S049","Female_couple_031_v",41,2,2497,"green","Reality",3,3,3,1,1,1098,3,"Female","Homosexual"
"S049","Female_005_v",42,2,3828,"blue","Fiction",3,3,3,1,1,1097,3,"Female","Homosexual"
"S049","Female_couple_019_h",43,2,2756,"blue","Fiction",5,5,5,1,1,1432,-3,"Female","Homosexual"
"S049","Female_couple_034_h",44,2,2721,"green","Reality",3,3,3,1,1,1201,3,"Female","Homosexual"
"S049","Female_011_h",45,2,4614,"green","Reality",3,3,3,1,1,1145,-2,"Female","Homosexual"
"S049","Female_couple_025_h",46,2,4230,"blue","Fiction",5,5,5,1,1,1194,3,"Female","Homosexual"
"S049","Female_couple_016_v",47,2,2887,"blue","Fiction",3,3,3,1,1,1437,3,"Female","Homosexual"
"S049","Female_004_v",48,2,2365,"green","Reality",2,2,2,1,1,1433,-2,"Female","Homosexual"
"S049","Female_couple_010_h",49,2,2441,"green","Reality",5,5,5,1,1,1116,2,"Female","Homosexual"
"S049","Female_couple_020_h",50,2,3919,"blue","Fiction",4,4,4,1,1,1271,2,"Female","Homosexual"
"S083","Opposite-sex_couple_011_h",1,2,8774,"red","Reality",6,6,0,1,1,1537,3,"Female","Heterosexual"
"S083","Male_019_h",2,2,6183,"red","Reality",5,6,0,1,1,1199,3,"Female","Heterosexual"
"S083","Opposite-sex_couple_035_h",3,2,4476,"red","Reality",6,6,0,1,1,1595,-3,"Female","Heterosexual"
"S083","Opposite-sex_couple_014_h",4,2,4958,"blue","Fiction",6,6,0,1,1,1976,1,"Female","Heterosexual"
"S083","Opposite-sex_couple_042_h",5,2,4992,"red","Reality",4,4,0,1,1,1315,-3,"Female","Heterosexual"
"S083","Opposite-sex_couple_013_h",6,2,5957,"blue","Fiction",6,5,5,1,1,1467,-3,"Female","Heterosexual"
"S083","Male_010_v",7,2,4483,"blue","Fiction",6,6,0,1,1,1100,3,"Female","Heterosexual"
"S083","Opposite-sex_couple_017_v",8,2,4367,"blue","Fiction",6,6,0,1,1,2098,3,"Female","Heterosexual"
"S083","Male_004_v",9,2,4138,"blue","Fiction",6,6,0,1,1,1284,2,"Female","Heterosexual"
"S083","Male_002_v",10,2,4428,"red","Reality",3,4,2,1,1,1955,3,"Female","Heterosexual"
"S083","Male_009_v",11,2,4401,"blue","Fiction",5,3,0,1,1,1127,-3,"Female","Heterosexual"
"S083","Male_007_h",12,2,5300,"red","Reality",6,4,4,1,1,1967,-2,"Female","Heterosexual"
"S083","Opposite-sex_couple_007_h",13,2,9305,"blue","Fiction",5,4,0,1,1,1504,3,"Female","Heterosexual"
"S083","Opposite-sex_couple_019_v",14,2,4399,"blue","Fiction",3,6,0,1,1,1607,3,"Female","Heterosexual"
"S083","Male_015_v",15,2,4305,"blue","Fiction",1,3,0,1,1,1807,3,"Female","Heterosexual"
"S083","Male_023_v",16,2,4955,"red","Reality",2,4,0,1,1,3068,-1,"Female","Heterosexual"
"S083","Male_022_v",17,2,5083,"red","Reality",6,3,6,1,1,1164,-3,"Female","Heterosexual"
"S083","Opposite-sex_couple_033_v",18,2,11962,"red","Reality",4,4,6,1,1,1784,-2,"Female","Heterosexual"
"S083","Male_006_v",19,2,4579,"blue","Fiction",5,4,4,1,1,1618,2,"Female","Heterosexual"
"S083","Opposite-sex_couple_015_h",20,2,4704,"red","Reality",4,4,2,1,1,1085,3,"Female","Heterosexual"
"S083","Male_017_v",21,2,4259,"blue","Fiction",4,5,2,1,1,1472,2,"Female","Heterosexual"
"S083","Opposite-sex_couple_020_h",22,2,4167,"blue","Fiction",4,5,4,1,1,1620,3,"Female","Heterosexual"
"S083","Male_013_v",23,2,4761,"red","Reality",6,4,3,1,1,1394,-1,"Female","Heterosexual"
"S083","Male_003_v",24,2,3389,"red","Reality",6,6,6,1,1,1535,-3,"Female","Heterosexual"
"S083","Opposite-sex_couple_018_h",25,2,4089,"blue","Fiction",6,6,0,1,1,1595,-3,"Female","Heterosexual"
"S083","Male_005_v",26,2,7506,"red","Reality",6,6,0,1,1,1444,-3,"Female","Heterosexual"
"S083","Opposite-sex_couple_024_h",27,2,5745,"red","Reality",6,6,4,1,1,1477,-1,"Female","Heterosexual"
"S083","Opposite-sex_couple_001_v",28,2,4629,"blue","Fiction",4,4,6,1,1,2322,1,"Female","Heterosexual"
"S083","Opposite-sex_couple_005_h",29,2,4401,"blue","Fiction",6,5,2,1,1,1786,3,"Female","Heterosexual"
"S083","Male_001_v",30,2,6914,"blue","Fiction",0,1,0,1,1,1084,-3,"Female","Heterosexual"
"S083","Male_012_h",31,2,5553,"red","Reality",4,4,5,1,1,1293,0,"Female","Heterosexual"
"S083","Opposite-sex_couple_025_h",32,2,4158,"red","Reality",6,6,4,1,1,1164,-1,"Female","Heterosexual"
"S083","Male_016_v",33,2,3884,"red","Reality",6,6,4,1,1,1711,-2,"Female","Heterosexual"
"S083","Opposite-sex_couple_008_h",34,2,3808,"blue","Fiction",6,6,1,1,1,1231,-3,"Female","Heterosexual"
"S083","Male_018_v",35,2,3702,"blue","Fiction",6,6,6,1,1,1718,-1,"Female","Heterosexual"
"S083","Opposite-sex_couple_016_v",36,2,3678,"red","Reality",6,6,6,1,1,2763,3,"Female","Heterosexual"
"S083","Male_014_v",37,2,3638,"blue","Fiction",6,5,0,1,1,1680,-3,"Female","Heterosexual"
"S083","Opposite-sex_couple_002_h",38,2,3183,"blue","Fiction",5,5,3,1,1,1440,2,"Female","Heterosexual"
"S083","Male_021_h",39,2,4531,"red","Reality",6,6,4,1,1,2116,3,"Female","Heterosexual"
"S083","Opposite-sex_couple_022_v",40,2,4565,"red","Reality",6,4,3,1,1,1756,-3,"Female","Heterosexual"
"S083","Male_025_v",41,2,2936,"red","Reality",0,0,0,1,1,2277,-3,"Female","Heterosexual"
"S083","Male_020_v",42,2,3485,"blue","Fiction",4,5,4,1,1,1741,-3,"Female","Heterosexual"
"S083","Male_011_v",43,2,4201,"blue","Fiction",3,2,2,1,1,1352,3,"Female","Heterosexual"
"S083","Male_008_v",44,2,3962,"blue","Fiction",6,6,4,1,1,1401,-3,"Female","Heterosexual"
"S083","Opposite-sex_couple_012_h",45,2,3660,"blue","Fiction",6,6,3,1,1,1442,2,"Female","Heterosexual"
"S083","Opposite-sex_couple_048_h",46,2,4082,"red","Reality",2,3,1,1,1,1752,3,"Female","Heterosexual"
"S083","Opposite-sex_couple_009_h",47,2,3299,"red","Reality",2,4,3,1,1,1566,-1,"Female","Heterosexual"
"S083","Opposite-sex_couple_047_v",48,2,3429,"red","Reality",6,5,4,1,1,2616,2,"Female","Heterosexual"
"S083","Male_024_h",49,2,4766,"red","Reality",2,0,0,1,1,1910,-3,"Female","Heterosexual"
"S083","Opposite-sex_couple_023_h",50,2,3092,"red","Reality",6,5,5,1,1,1723,2,"Female","Heterosexual"
"S073","Opposite-sex_couple_035_h",1,2,7574,"red","Reality",0,1,3,1,1,1119,-3,"Male","Heterosexual"
"S073","Female_012_v",2,2,6441,"green","Fiction",1,4,4,1,1,1788,-3,"Male","Heterosexual"
"S073","Opposite-sex_couple_033_v",3,2,4676,"green","Fiction",0,1,0,1,1,1155,-1,"Male","Heterosexual"
"S073","Female_001_h",4,2,4861,"red","Reality",0,0,0,1,1,1248,3,"Male","Heterosexual"
"S073","Female_011_h",5,2,4534,"red","Reality",0,2,3,1,1,1106,-3,"Male","Heterosexual"
"S073","Female_003_v",6,2,2543,"green","Fiction",0,0,0,1,1,842,-3,"Male","Heterosexual"
"S073","Opposite-sex_couple_001_v",7,2,2756,"green","Fiction",0,0,0,1,1,818,-3,"Male","Heterosexual"
"S073","Female_023_h",8,2,4032,"green","Fiction",0,0,1,1,1,1737,-3,"Male","Heterosexual"
"S073","Opposite-sex_couple_047_v",9,2,4957,"red","Reality",0,3,3,1,1,1658,2,"Male","Heterosexual"
"S073","Female_008_v",10,2,3000,"green","Fiction",0,0,0,1,1,1208,-3,"Male","Heterosexual"
"S073","Female_005_v",11,2,5042,"red","Reality",0,3,3,1,1,1311,1,"Male","Heterosexual"
"S073","Female_021_h",12,2,10319,"red","Reality",5,4,5,1,1,1391,-3,"Male","Heterosexual"
"S073","Opposite-sex_couple_007_h",13,2,4215,"red","Reality",3,4,5,1,1,1300,-1,"Male","Heterosexual"
"S073","Opposite-sex_couple_023_h",14,2,6963,"green","Fiction",3,4,3,1,1,966,-3,"Male","Heterosexual"
"S073","Female_020_v",15,2,5704,"red","Reality",6,5,6,1,1,1130,1,"Male","Heterosexual"
"S073","Female_018_h",16,2,5229,"red","Reality",6,6,6,1,1,1271,-3,"Male","Heterosexual"
"S073","Female_022_h",17,2,8083,"green","Fiction",1,2,1,1,1,864,-3,"Male","Heterosexual"
"S073","Female_010_h",18,2,11679,"green","Fiction",3,3,3,1,1,2833,2,"Male","Heterosexual"
"S073","Female_013_h",19,2,2381,"green","Fiction",0,0,0,1,1,2668,-3,"Male","Heterosexual"
"S073","Opposite-sex_couple_042_h",20,2,5679,"green","Fiction",2,2,2,1,1,1849,1,"Male","Heterosexual"
"S073","Opposite-sex_couple_016_v",21,2,3174,"green","Fiction",0,0,0,1,1,1390,0,"Male","Heterosexual"
"S073","Opposite-sex_couple_024_h",22,2,4093,"red","Reality",0,0,3,1,1,2347,1,"Male","Heterosexual"
"S073","Opposite-sex_couple_008_h",23,2,4888,"red","Reality",3,5,4,1,1,3000,-1,"Male","Heterosexual"
"S073","Female_006_v",24,2,6241,"red","Reality",0,2,3,1,1,1368,1,"Male","Heterosexual"
"S073","Opposite-sex_couple_005_h",25,2,2984,"red","Reality",0,0,0,1,1,1282,2,"Male","Heterosexual"
"S073","Opposite-sex_couple_022_v",26,2,3265,"red","Reality",0,0,0,1,1,1417,2,"Male","Heterosexual"
"S073","Opposite-sex_couple_020_h",27,2,5624,"green","Fiction",3,6,5,1,1,991,-3,"Male","Heterosexual"
"S073","Opposite-sex_couple_014_h",28,2,2164,"red","Reality",0,0,0,1,1,1669,2,"Male","Heterosexual"
"S073","Female_009_h",29,2,4398,"green","Fiction",3,5,3,1,1,772,-3,"Male","Heterosexual"
"S073","Opposite-sex_couple_018_h",30,2,2443,"green","Fiction",0,0,0,1,1,1233,2,"Male","Heterosexual"
"S073","Opposite-sex_couple_009_h",31,2,2108,"green","Fiction",0,0,0,1,1,1894,1,"Male","Heterosexual"
"S073","Female_014_v",32,2,2794,"green","Fiction",0,0,0,1,1,3566,2,"Male","Heterosexual"
"S073","Female_007_v",33,2,3787,"red","Reality",0,3,5,1,1,1244,3,"Male","Heterosexual"
"S073","Opposite-sex_couple_013_h",34,2,2035,"red","Reality",0,0,0,1,1,1520,3,"Male","Heterosexual"
"S073","Opposite-sex_couple_017_v",35,2,2464,"green","Fiction",0,0,3,1,1,1376,-1,"Male","Heterosexual"
"S073","Opposite-sex_couple_025_h",36,2,3400,"green","Fiction",0,0,0,1,1,1513,2,"Male","Heterosexual"
"S073","Female_024_v",37,2,3152,"green","Fiction",0,0,0,1,1,1132,-3,"Male","Heterosexual"
"S073","Opposite-sex_couple_011_h",38,2,6428,"green","Fiction",0,0,4,1,1,1204,1,"Male","Heterosexual"
"S073","Female_002_h",39,2,5487,"green","Fiction",6,5,5,1,1,2842,-2,"Male","Heterosexual"
"S073","Female_016_h",40,2,2861,"green","Fiction",0,0,0,1,1,1590,0,"Male","Heterosexual"
"S073","Opposite-sex_couple_012_h",41,2,3212,"red","Reality",0,0,0,1,1,1514,0,"Male","Heterosexual"
"S073","Opposite-sex_couple_019_v",42,2,3722,"red","Reality",0,5,5,1,1,1510,-2,"Male","Heterosexual"
"S073","Opposite-sex_couple_015_h",43,2,3987,"red","Reality",4,4,4,1,1,877,3,"Male","Heterosexual"
"S073","Female_017_v",44,2,5377,"red","Reality",3,2,3,1,1,1140,-3,"Male","Heterosexual"
"S073","Female_019_h",45,2,5165,"red","Reality",6,5,5,1,1,1855,2,"Male","Heterosexual"
"S073","Female_015_v",46,2,2586,"red","Reality",0,0,0,1,1,1136,-3,"Male","Heterosexual"
"S073","Female_025_h",47,2,4493,"red","Reality",0,3,3,1,1,1218,2,"Male","Heterosexual"
"S073","Female_004_v",48,2,4007,"red","Reality",0,3,3,1,1,1217,-1,"Male","Heterosexual"
"S073","Opposite-sex_couple_002_h",49,2,3284,"green","Fiction",4,4,5,1,1,1295,3,"Male","Heterosexual"
"S073","Opposite-sex_couple_048_h",50,2,4105,"red","Reality",1,3,4,1,1,1277,2,"Male","Heterosexual"
"S076","Male_023_v",1,2,6860,"green","Fiction",3,4,5,1,1,1510,1,"Female","Heterosexual"
"S076","Opposite-sex_couple_023_h",2,2,6033,"red","Reality",3,4,3,1,1,2442,-1,"Female","Heterosexual"
"S076","Male_019_h",3,2,4446,"red","Reality",2,1,1,1,1,1507,1,"Female","Heterosexual"
"S076","Opposite-sex_couple_022_v",4,2,4223,"green","Fiction",2,1,1,1,1,1416,-1,"Female","Heterosexual"
"S076","Male_011_v",5,2,4960,"green","Fiction",2,1,1,1,1,1331,-1,"Female","Heterosexual"
"S076","Male_018_v",6,2,5719,"red","Reality",3,4,3,1,1,1502,-1,"Female","Heterosexual"
"S076","Opposite-sex_couple_042_h",7,2,5495,"green","Fiction",2,3,3,1,1,2212,-3,"Female","Heterosexual"
"S076","Opposite-sex_couple_017_v",8,2,4375,"green","Fiction",3,2,2,1,1,5666,2,"Female","Heterosexual"
"S076","Male_008_v",9,2,6517,"green","Fiction",4,4,4,1,1,1291,-3,"Female","Heterosexual"
"S076","Male_017_v",10,2,5496,"red","Reality",4,5,5,1,1,3390,-1,"Female","Heterosexual"
"S076","Opposite-sex_couple_011_h",11,2,7591,"green","Fiction",2,1,2,1,1,1057,2,"Female","Heterosexual"
"S076","Opposite-sex_couple_007_h",12,2,5090,"green","Fiction",2,3,1,1,1,1156,1,"Female","Heterosexual"
"S076","Opposite-sex_couple_020_h",13,2,7442,"green","Fiction",4,5,4,1,1,1308,-2,"Female","Heterosexual"
"S076","Opposite-sex_couple_018_h",14,2,5673,"red","Reality",4,4,4,1,1,1726,1,"Female","Heterosexual"
"S076","Opposite-sex_couple_015_h",15,2,3811,"red","Reality",5,4,4,1,1,1420,-2,"Female","Heterosexual"
"S076","Opposite-sex_couple_009_h",16,2,3062,"red","Reality",3,2,2,1,1,1453,1,"Female","Heterosexual"
"S076","Male_007_h",17,2,3697,"red","Reality",4,4,3,1,1,1175,2,"Female","Heterosexual"
"S076","Male_014_v",18,2,5350,"red","Reality",5,5,4,1,1,5451,-1,"Female","Heterosexual"
"S076","Opposite-sex_couple_001_v",19,2,2755,"red","Reality",3,2,3,1,1,1642,-1,"Female","Heterosexual"
"S076","Opposite-sex_couple_035_h",20,2,3055,"red","Reality",2,1,2,1,1,1877,1,"Female","Heterosexual"
"S076","Male_003_v",21,2,5013,"green","Fiction",2,2,2,1,1,1440,-1,"Female","Heterosexual"
"S076","Opposite-sex_couple_019_v",22,2,5712,"red","Reality",1,2,4,1,1,1157,-1,"Female","Heterosexual"
"S076","Opposite-sex_couple_014_h",23,2,6250,"red","Reality",3,4,4,1,1,2334,2,"Female","Heterosexual"
"S076","Male_020_v",24,2,3557,"red","Reality",2,3,4,1,1,1688,1,"Female","Heterosexual"
"S076","Opposite-sex_couple_002_h",25,2,4709,"green","Fiction",2,3,4,1,1,2039,1,"Female","Heterosexual"
"S076","Opposite-sex_couple_012_h",26,2,5000,"green","Fiction",4,5,6,1,1,1491,-2,"Female","Heterosexual"
"S076","Opposite-sex_couple_047_v",27,2,6701,"red","Reality",3,4,4,1,1,1085,2,"Female","Heterosexual"
"S076","Male_022_v",28,2,5015,"green","Fiction",4,4,5,1,1,1381,-2,"Female","Heterosexual"
"S076","Male_021_h",29,2,7841,"green","Fiction",3,4,4,1,1,1059,1,"Female","Heterosexual"
"S076","Male_005_v",30,2,5987,"green","Fiction",2,1,1,1,1,1210,-3,"Female","Heterosexual"
"S076","Opposite-sex_couple_013_h",31,2,5313,"red","Reality",2,3,3,1,1,1008,2,"Female","Heterosexual"
"S076","Male_013_v",32,2,5214,"red","Reality",2,3,3,1,1,1569,1,"Female","Heterosexual"
"S076","Opposite-sex_couple_025_h",33,2,5173,"green","Fiction",5,5,6,1,1,1979,1,"Female","Heterosexual"
"S076","Male_012_h",34,2,4062,"red","Reality",4,3,3,1,1,1115,2,"Female","Heterosexual"
"S076","Opposite-sex_couple_048_h",35,2,3636,"green","Fiction",3,4,5,1,1,1086,2,"Female","Heterosexual"
"S076","Male_016_v",36,2,2893,"red","Reality",2,3,2,1,1,2580,-3,"Female","Heterosexual"
"S076","Male_004_v",37,2,4613,"red","Reality",2,3,3,1,1,1434,-3,"Female","Heterosexual"
"S076","Male_001_v",38,2,3962,"red","Reality",0,0,0,1,1,2848,-1,"Female","Heterosexual"
"S076","Male_010_v",39,2,5785,"green","Fiction",2,3,3,1,1,1917,0,"Female","Heterosexual"
"S076","Male_006_v",40,2,4055,"red","Reality",1,1,3,1,1,1047,1,"Female","Heterosexual"
"S076","Male_024_h",41,2,5506,"red","Reality",2,3,4,1,1,1583,-2,"Female","Heterosexual"
"S076","Opposite-sex_couple_008_h",42,2,5915,"red","Reality",3,4,3,1,1,1112,-2,"Female","Heterosexual"
"S076","Male_025_v",43,2,7587,"green","Fiction",0,0,0,1,1,978,-2,"Female","Heterosexual"
"S076","Male_015_v",44,2,3670,"green","Fiction",2,3,4,1,1,1111,2,"Female","Heterosexual"
"S076","Opposite-sex_couple_016_v",45,2,3843,"green","Fiction",2,4,3,1,1,969,-2,"Female","Heterosexual"
"S076","Opposite-sex_couple_005_h",46,2,5057,"red","Reality",5,5,5,1,1,1243,2,"Female","Heterosexual"
"S076","Opposite-sex_couple_024_h",47,2,3869,"green","Fiction",4,5,4,1,1,1288,2,"Female","Heterosexual"
"S076","Male_009_v",48,2,6007,"green","Fiction",3,5,5,1,1,926,-3,"Female","Heterosexual"
"S076","Opposite-sex_couple_033_v",49,2,3575,"red","Reality",2,3,4,1,1,1097,2,"Female","Heterosexual"
"S076","Male_002_v",50,2,5423,"green","Fiction",2,4,4,1,1,1519,-2,"Female","Heterosexual"
"S102","Female_004_v",1,2,4693,"green","Fiction",4,5,4,1,1,1278,-1,"Male","Heterosexual"
"S102","Female_020_v",2,2,7200,"green","Fiction",5,5,5,1,1,1365,2,"Male","Heterosexual"
"S102","Female_018_h",3,2,5292,"red","Reality",5,5,5,1,1,1242,2,"Male","Heterosexual"
"S102","Female_022_h",4,2,6569,"green","Fiction",4,5,5,1,1,1924,1,"Male","Heterosexual"
"S102","Opposite-sex_couple_011_h",5,2,7299,"green","Fiction",3,2,4,1,1,1773,1,"Male","Heterosexual"
"S102","Opposite-sex_couple_019_v",6,2,7202,"red","Reality",1,1,3,1,1,1031,-2,"Male","Heterosexual"
"S102","Opposite-sex_couple_009_h",7,2,7970,"green","Fiction",4,3,4,1,1,1256,0,"Male","Heterosexual"
"S102","Opposite-sex_couple_047_v",8,2,5481,"red","Reality",2,3,3,1,1,1456,-1,"Male","Heterosexual"
"S102","Female_014_v",9,2,7403,"green","Fiction",3,4,3,1,1,1155,-1,"Male","Heterosexual"
"S102","Female_007_v",10,2,13310,"red","Reality",2,2,3,1,1,965,-1,"Male","Heterosexual"
"S102","Female_023_h",11,2,5341,"red","Reality",3,3,4,1,1,1435,1,"Male","Heterosexual"
"S102","Female_024_v",12,2,9518,"red","Reality",2,3,3,1,1,1141,0,"Male","Heterosexual"
"S102","Opposite-sex_couple_020_h",13,2,8476,"red","Reality",3,2,3,1,1,1127,-1,"Male","Heterosexual"
"S102","Opposite-sex_couple_022_v",14,2,8353,"green","Fiction",1,2,2,1,1,839,-2,"Male","Heterosexual"
"S102","Opposite-sex_couple_005_h",15,2,8692,"red","Reality",4,3,3,1,1,1325,1,"Male","Heterosexual"
"S102","Female_005_v",16,2,6280,"green","Fiction",2,2,1,1,1,1103,1,"Male","Heterosexual"
"S102","Female_017_v",17,2,5728,"red","Reality",4,4,4,1,1,1522,-1,"Male","Heterosexual"
"S102","Opposite-sex_couple_008_h",18,2,8354,"green","Fiction",3,3,3,1,1,835,1,"Male","Heterosexual"
"S102","Opposite-sex_couple_015_h",19,2,5553,"red","Reality",1,1,2,1,1,1069,-2,"Male","Heterosexual"
"S102","Female_019_h",20,2,5018,"red","Reality",2,3,3,1,1,954,-2,"Male","Heterosexual"
"S102","Opposite-sex_couple_016_v",21,2,7625,"green","Fiction",0,1,2,1,1,1600,-2,"Male","Heterosexual"
"S102","Opposite-sex_couple_048_h",22,2,6077,"green","Fiction",0,1,2,1,1,1018,-1,"Male","Heterosexual"
"S102","Female_025_h",23,2,5637,"green","Fiction",2,4,3,1,1,1072,1,"Male","Heterosexual"
"S102","Opposite-sex_couple_018_h",24,2,5474,"red","Reality",3,3,3,1,1,1961,2,"Male","Heterosexual"
"S102","Female_006_v",25,2,4205,"red","Reality",3,4,4,1,1,1043,-1,"Male","Heterosexual"
"S102","Female_001_h",26,2,4501,"green","Fiction",2,2,3,1,1,1180,-1,"Male","Heterosexual"
"S102","Female_012_v",27,2,6114,"red","Reality",2,2,2,1,1,1001,0,"Male","Heterosexual"
"S102","Female_016_h",28,2,7095,"green","Fiction",0,1,2,1,1,1542,0,"Male","Heterosexual"
"S102","Opposite-sex_couple_014_h",29,2,6274,"green","Fiction",1,1,2,1,1,1329,2,"Male","Heterosexual"
"S102","Opposite-sex_couple_025_h",30,2,6552,"green","Fiction",3,4,3,1,1,1298,2,"Male","Heterosexual"
"S102","Female_013_h",31,2,6359,"red","Reality",3,4,4,1,1,939,-1,"Male","Heterosexual"
"S102","Opposite-sex_couple_033_v",32,2,5056,"red","Reality",2,2,2,1,1,931,-1,"Male","Heterosexual"
"S102","Opposite-sex_couple_024_h",33,2,5193,"red","Reality",2,3,3,1,1,1164,-1,"Male","Heterosexual"
"S102","Opposite-sex_couple_013_h",34,2,6117,"red","Reality",1,2,4,1,1,1086,1,"Male","Heterosexual"
"S102","Female_002_h",35,2,3585,"green","Fiction",2,3,3,1,1,1246,1,"Male","Heterosexual"
"S102","Opposite-sex_couple_023_h",36,2,4878,"red","Reality",1,2,3,1,1,1558,1,"Male","Heterosexual"
"S102","Opposite-sex_couple_012_h",37,2,8290,"red","Reality",3,3,3,1,1,1205,1,"Male","Heterosexual"
"S102","Female_021_h",38,2,3870,"green","Fiction",2,3,3,1,1,1303,-1,"Male","Heterosexual"
"S102","Opposite-sex_couple_001_v",39,2,5509,"red","Reality",0,1,3,1,1,1616,1,"Male","Heterosexual"
"S102","Female_003_v",40,2,3611,"red","Reality",1,1,2,1,1,975,-2,"Male","Heterosexual"
"S102","Opposite-sex_couple_035_h",41,2,3172,"green","Fiction",0,0,1,1,1,1045,-1,"Male","Heterosexual"
"S102","Opposite-sex_couple_002_h",42,2,3262,"red","Reality",1,1,2,1,1,1308,-2,"Male","Heterosexual"
"S102","Female_008_v",43,2,4018,"green","Fiction",1,1,1,1,1,1054,1,"Male","Heterosexual"
"S102","Opposite-sex_couple_042_h",44,2,1896,"green","Fiction",0,0,0,1,1,1658,2,"Male","Heterosexual"
"S102","Opposite-sex_couple_007_h",45,2,2779,"green","Fiction",0,0,1,1,1,1978,0,"Male","Heterosexual"
"S102","Female_015_v",46,2,3694,"red","Reality",1,2,2,1,1,1730,1,"Male","Heterosexual"
"S102","Female_010_h",47,2,3327,"red","Reality",0,1,1,1,1,1997,1,"Male","Heterosexual"
"S102","Opposite-sex_couple_017_v",48,2,3783,"green","Fiction",1,1,1,1,1,2055,-1,"Male","Heterosexual"
"S102","Female_009_h",49,2,4567,"green","Fiction",1,2,2,1,1,1956,-1,"Male","Heterosexual"
"S102","Female_011_h",50,2,3497,"red","Reality",1,2,2,1,1,1192,-2,"Male","Heterosexual"
"S019","Male_couple_029_h",1,2,20193,"blue","Fiction",1,6,3,1,1,1377,3,"Male","Homosexual"
"S019","Male_couple_010_h",2,2,8935,"green","Reality",1,5,1,1,1,1179,3,"Male","Homosexual"
"S019","Male_couple_011_v",3,2,11694,"green","Reality",2,2,3,1,1,1609,3,"Male","Homosexual"
"S019","Male_011_v",4,2,5458,"green","Reality",6,6,6,1,1,1997,-1,"Male","Homosexual"
"S019","Male_002_v",5,2,8163,"green","Reality",5,6,6,1,1,3000,-2,"Male","Homosexual"
"S019","Male_couple_006_h",6,2,41785,"green","Reality",1,4,5,1,1,2091,-3,"Male","Homosexual"
"S019","Male_couple_009_v",7,2,7873,"blue","Fiction",4,5,5,1,1,3477,1,"Male","Homosexual"
"S019","Male_015_v",8,2,9961,"blue","Fiction",5,6,5,1,1,2243,0,"Male","Homosexual"
"S019","Male_025_v",9,2,8242,"green","Reality",4,5,3,1,1,2248,-1,"Male","Homosexual"
"S019","Male_013_v",10,2,6098,"green","Reality",5,4,4,1,1,1967,-2,"Male","Homosexual"
"S019","Male_couple_002_h",11,2,5925,"blue","Fiction",3,5,5,1,1,1504,2,"Male","Homosexual"
"S019","Male_couple_013_h",12,2,17146,"green","Reality",3,5,5,1,1,3309,0,"Male","Homosexual"
"S019","Male_018_v",13,2,4944,"blue","Fiction",4,5,4,1,1,2516,3,"Male","Homosexual"
"S019","Male_023_v",14,2,5872,"blue","Fiction",4,5,6,1,1,1322,3,"Male","Homosexual"
"S019","Male_024_h",15,2,5378,"green","Reality",5,6,6,1,1,1372,3,"Male","Homosexual"
"S019","Male_019_h",16,2,5129,"blue","Fiction",6,6,6,1,1,2374,0,"Male","Homosexual"
"S019","Male_couple_037_v",17,2,5405,"green","Reality",5,6,5,1,1,3367,3,"Male","Homosexual"
"S019","Male_001_v",18,2,5735,"green","Reality",4,5,5,1,1,1952,0,"Male","Homosexual"
"S019","Male_couple_023_v",19,2,7345,"blue","Fiction",4,6,5,1,1,3398,-3,"Male","Homosexual"
"S019","Male_021_h",20,2,5031,"blue","Fiction",6,6,6,1,1,1927,-2,"Male","Homosexual"
"S019","Male_022_v",21,2,11019,"blue","Fiction",6,5,6,1,1,2830,0,"Male","Homosexual"
"S019","Male_couple_044_h",22,2,3863,"green","Reality",6,5,6,1,1,1577,3,"Male","Homosexual"
"S019","Male_008_v",23,2,4900,"blue","Fiction",6,6,6,1,1,1537,3,"Male","Homosexual"
"S019","Male_couple_022_v",24,2,5148,"green","Reality",5,5,5,1,1,1508,3,"Male","Homosexual"
"S019","Male_couple_012_v",25,2,7675,"blue","Fiction",4,5,6,1,1,1931,0,"Male","Homosexual"
"S019","Male_couple_018_h",26,2,5324,"green","Reality",5,6,5,1,1,2410,3,"Male","Homosexual"
"S019","Male_couple_025_v",27,2,5665,"blue","Fiction",5,6,5,1,1,1197,2,"Male","Homosexual"
"S019","Male_004_v",28,2,7025,"green","Reality",6,6,6,1,1,1452,2,"Male","Homosexual"
"S019","Male_couple_003_v",29,2,5671,"blue","Fiction",6,6,6,1,1,2938,0,"Male","Homosexual"
"S019","Male_couple_047_h",30,2,5149,"blue","Fiction",4,6,5,1,1,2057,3,"Male","Homosexual"
"S019","Male_couple_014_h",31,2,4836,"green","Reality",5,6,5,1,1,1333,3,"Male","Homosexual"
"S019","Male_couple_024_h",32,2,5526,"blue","Fiction",6,6,6,1,1,1753,2,"Male","Homosexual"
"S019","Male_couple_015_v",33,2,5823,"green","Reality",5,6,5,1,1,3179,1,"Male","Homosexual"
"S019","Male_couple_021_h",34,2,4554,"green","Reality",6,6,6,1,1,7955,3,"Male","Homosexual"
"S019","Male_006_v",35,2,5717,"green","Reality",4,5,3,1,1,2470,2,"Male","Homosexual"
"S019","Male_009_v",36,2,6291,"blue","Fiction",5,6,6,1,1,1954,-1,"Male","Homosexual"
"S019","Male_couple_007_v",37,2,6894,"green","Reality",4,6,4,1,1,2280,-3,"Male","Homosexual"
"S019","Male_couple_019_h",38,2,5107,"blue","Fiction",3,5,5,1,1,1220,2,"Male","Homosexual"
"S019","Male_003_v",39,2,5657,"blue","Fiction",6,6,6,1,1,1432,3,"Male","Homosexual"
"S019","Male_017_v",40,2,5467,"green","Reality",5,6,5,1,1,2127,1,"Male","Homosexual"
"S019","Male_012_h",41,2,5814,"green","Reality",5,6,5,1,1,1510,2,"Male","Homosexual"
"S019","Male_couple_020_h",42,2,8048,"blue","Fiction",4,5,5,1,1,2352,-1,"Male","Homosexual"
"S019","Male_014_v",43,2,5223,"blue","Fiction",5,4,6,1,1,2293,2,"Male","Homosexual"
"S019","Male_007_h",44,2,5106,"green","Reality",5,6,5,1,1,1614,-1,"Male","Homosexual"
"S019","Male_005_v",45,2,6803,"green","Reality",5,4,4,1,1,2741,0,"Male","Homosexual"
"S019","Male_016_v",46,2,8742,"blue","Fiction",5,4,5,1,1,2071,2,"Male","Homosexual"
"S019","Male_010_v",47,2,5586,"blue","Fiction",6,6,6,1,1,1583,0,"Male","Homosexual"
"S019","Male_020_v",48,2,4596,"green","Reality",6,6,6,1,1,1857,-1,"Male","Homosexual"
"S019","Male_couple_016_h",49,2,7399,"blue","Fiction",5,6,5,1,1,1750,2,"Male","Homosexual"
"S019","Male_couple_033_v",50,2,6137,"green","Reality",5,6,6,1,1,2479,2,"Male","Homosexual"
"S002","Opposite-sex_couple_002_h",1,2,8280,"green","Fiction",6,4,6,1,1,4813,2,"Male","Heterosexual"
"S002","Opposite-sex_couple_007_h",2,2,11401,"green","Fiction",2,4,4,1,1,2471,1,"Male","Heterosexual"
"S002","Female_020_v",3,2,5736,"red","Reality",6,6,6,1,1,1753,3,"Male","Heterosexual"
"S002","Female_005_v",4,2,10024,"red","Reality",3,5,3,1,1,1859,3,"Male","Heterosexual"
"S002","Female_012_v",5,2,8433,"green","Fiction",3,5,3,1,1,2458,-2,"Male","Heterosexual"
"S002","Opposite-sex_couple_048_h",6,2,8697,"red","Reality",1,3,0,1,1,2685,3,"Male","Heterosexual"
"S002","Opposite-sex_couple_012_h",7,2,6815,"red","Reality",0,3,0,1,1,1729,3,"Male","Heterosexual"
"S002","Opposite-sex_couple_023_h",8,2,9293,"red","Reality",3,5,3,1,1,1939,1,"Male","Heterosexual"
"S002","Opposite-sex_couple_022_v",9,2,6190,"red","Reality",0,2,1,1,1,3883,3,"Male","Heterosexual"
"S002","Opposite-sex_couple_024_h",10,2,8328,"red","Reality",3,4,2,1,1,2128,3,"Male","Heterosexual"
"S002","Opposite-sex_couple_017_v",11,2,7088,"red","Reality",0,4,1,1,1,2910,-2,"Male","Heterosexual"
"S002","Female_010_h",12,2,6267,"red","Reality",0,4,0,1,1,2266,-3,"Male","Heterosexual"
"S002","Opposite-sex_couple_001_v",13,2,4965,"green","Fiction",0,2,0,1,1,1425,-3,"Male","Heterosexual"
"S002","Female_011_h",14,2,6690,"green","Fiction",0,1,0,1,1,1738,-3,"Male","Heterosexual"
"S002","Female_025_h",15,2,9849,"red","Reality",0,3,0,1,1,1810,-3,"Male","Heterosexual"
"S002","Female_006_v",16,2,8218,"green","Fiction",1,6,0,1,1,1610,-3,"Male","Heterosexual"
"S002","Female_003_v",17,2,7502,"red","Reality",1,4,1,1,1,1759,-3,"Male","Heterosexual"
"S002","Female_023_h",18,2,13994,"green","Fiction",0,3,0,1,1,2792,1,"Male","Heterosexual"
"S002","Opposite-sex_couple_042_h",19,2,9673,"red","Reality",0,1,2,1,1,2258,1,"Male","Heterosexual"
"S002","Opposite-sex_couple_019_v",20,2,9054,"green","Fiction",0,0,1,1,1,2710,-1,"Male","Heterosexual"
"S002","Opposite-sex_couple_009_h",21,2,10663,"green","Fiction",0,2,3,1,1,2020,-2,"Male","Heterosexual"
"S002","Opposite-sex_couple_025_h",22,2,32996,"green","Fiction",0,6,0,1,1,2245,3,"Male","Heterosexual"
"S002","Female_007_v",23,2,17133,"red","Reality",0,4,0,1,1,2874,-3,"Male","Heterosexual"
"S002","Female_022_h",24,2,8866,"red","Reality",4,6,5,1,1,2766,2,"Male","Heterosexual"
"S002","Female_019_h",25,2,7964,"green","Fiction",2,4,4,1,1,2041,2,"Male","Heterosexual"
"S002","Opposite-sex_couple_011_h",26,2,7274,"red","Reality",0,3,3,1,1,2210,1,"Male","Heterosexual"
"S002","Female_021_h",27,2,5445,"green","Fiction",6,6,6,1,1,4380,1,"Male","Heterosexual"
"S002","Female_024_v",28,2,7571,"red","Reality",4,5,3,1,1,3295,3,"Male","Heterosexual"
"S002","Opposite-sex_couple_016_v",29,2,6362,"green","Fiction",0,2,3,1,1,2405,1,"Male","Heterosexual"
"S002","Female_014_v",30,2,8615,"green","Fiction",1,4,3,1,1,1737,-3,"Male","Heterosexual"
"S002","Female_013_h",31,2,9300,"green","Fiction",2,6,4,1,1,1991,-3,"Male","Heterosexual"
"S002","Opposite-sex_couple_005_h",32,2,13433,"red","Reality",3,3,2,1,1,2967,1,"Male","Heterosexual"
"S002","Female_015_v",33,2,7917,"green","Fiction",0,3,3,1,1,2123,-3,"Male","Heterosexual"
"S002","Female_002_h",34,2,4862,"red","Reality",6,6,6,1,1,2159,1,"Male","Heterosexual"
"S002","Female_004_v",35,2,5950,"red","Reality",3,4,5,1,1,1907,-3,"Male","Heterosexual"
"S002","Female_001_h",36,2,11903,"red","Reality",2,6,4,1,1,2827,-2,"Male","Heterosexual"
"S002","Opposite-sex_couple_013_h",37,2,36872,"green","Fiction",0,3,3,1,1,1628,3,"Male","Heterosexual"
"S002","Opposite-sex_couple_047_v",38,2,6556,"red","Reality",0,4,3,1,1,2150,3,"Male","Heterosexual"
"S002","Female_009_h",39,2,9002,"green","Fiction",0,5,3,1,1,1618,-3,"Male","Heterosexual"
"S002","Female_016_h",40,2,4330,"red","Reality",6,6,6,1,1,1917,3,"Male","Heterosexual"
"S002","Female_008_v",41,2,6814,"red","Reality",2,5,4,1,1,1819,-3,"Male","Heterosexual"
"S002","Opposite-sex_couple_008_h",42,2,9061,"green","Fiction",0,3,2,1,1,2394,-3,"Male","Heterosexual"
"S002","Opposite-sex_couple_018_h",43,2,7102,"red","Reality",5,6,6,1,1,3478,2,"Male","Heterosexual"
"S002","Opposite-sex_couple_020_h",44,2,8829,"green","Fiction",2,4,3,1,1,2407,2,"Male","Heterosexual"
"S002","Opposite-sex_couple_014_h",45,2,8526,"green","Fiction",1,6,4,1,1,2143,2,"Male","Heterosexual"
"S002","Opposite-sex_couple_015_h",46,2,7638,"green","Fiction",2,5,3,1,1,2112,3,"Male","Heterosexual"
"S002","Opposite-sex_couple_033_v",47,2,7104,"red","Reality",0,4,1,1,1,3314,2,"Male","Heterosexual"
"S002","Female_018_h",48,2,9118,"green","Fiction",3,4,4,1,1,1873,3,"Male","Heterosexual"
"S002","Opposite-sex_couple_035_h",49,2,4417,"red","Reality",0,4,3,1,1,4813,2,"Male","Heterosexual"
"S002","Female_017_v",50,2,9683,"green","Fiction",2,3,4,1,1,2285,-3,"Male","Heterosexual"
"S096","Opposite-sex_couple_011_h",1,2,19296,"red","Reality",4,6,4,1,1,5526,3,"Male","Heterosexual"
"S096","Opposite-sex_couple_024_h",2,2,17850,"green","Fiction",6,4,6,1,1,2726,-2,"Male","Heterosexual"
"S096","Female_008_v",3,2,14694,"red","Reality",3,2,3,1,1,2229,-1,"Male","Heterosexual"
"S096","Opposite-sex_couple_009_h",4,2,13118,"green","Fiction",6,5,5,1,1,2344,1,"Male","Heterosexual"
"S096","Female_003_v",5,2,21808,"green","Fiction",3,3,3,1,1,2266,-1,"Male","Heterosexual"
"S096","Female_010_h",6,2,9071,"green","Fiction",3,2,3,1,1,3277,2,"Male","Heterosexual"
"S096","Female_020_v",7,2,21428,"green","Fiction",6,5,6,1,1,2665,-3,"Male","Heterosexual"
"S096","Opposite-sex_couple_035_h",8,2,7158,"green","Fiction",2,3,1,1,1,2682,-2,"Male","Heterosexual"
"S096","Opposite-sex_couple_025_h",9,2,5841,"green","Fiction",6,6,6,1,1,2244,1,"Male","Heterosexual"
"S096","Opposite-sex_couple_019_v",10,2,6490,"red","Reality",2,1,2,1,1,2667,3,"Male","Heterosexual"
"S096","Female_012_v",11,2,13866,"green","Fiction",0,1,1,1,1,4301,-1,"Male","Heterosexual"
"S096","Female_005_v",12,2,8236,"green","Fiction",0,0,0,1,1,2659,3,"Male","Heterosexual"
"S096","Opposite-sex_couple_008_h",13,2,8678,"green","Fiction",3,2,3,1,1,1466,1,"Male","Heterosexual"
"S096","Female_017_v",14,2,9826,"red","Reality",3,3,3,1,1,2105,-1,"Male","Heterosexual"
"S096","Female_025_h",15,2,7402,"red","Reality",4,3,3,1,1,2198,-1,"Male","Heterosexual"
"S096","Opposite-sex_couple_014_h",16,2,6953,"red","Reality",5,6,5,1,1,2136,3,"Male","Heterosexual"
"S096","Opposite-sex_couple_015_h",17,2,9961,"red","Reality",4,5,3,1,1,1994,2,"Male","Heterosexual"
"S096","Female_016_h",18,2,6522,"green","Fiction",2,2,2,1,1,3280,-2,"Male","Heterosexual"
"S096","Opposite-sex_couple_047_v",19,2,5785,"red","Reality",1,0,1,1,1,1920,3,"Male","Heterosexual"
"S096","Opposite-sex_couple_033_v",20,2,5773,"green","Fiction",1,2,1,1,1,2300,-2,"Male","Heterosexual"
"S096","Opposite-sex_couple_042_h",21,2,5493,"green","Fiction",1,2,2,1,1,1964,3,"Male","Heterosexual"
"S096","Female_007_v",22,2,4951,"red","Reality",0,1,1,1,1,3789,1,"Male","Heterosexual"
"S096","Female_014_v",23,2,11503,"red","Reality",0,1,1,1,1,2181,-1,"Male","Heterosexual"
"S096","Female_018_h",24,2,8448,"green","Fiction",3,4,5,1,1,2601,1,"Male","Heterosexual"
"S096","Opposite-sex_couple_020_h",25,2,6008,"red","Reality",3,3,4,1,1,3238,-1,"Male","Heterosexual"
"S096","Female_004_v",26,2,6666,"red","Reality",2,2,2,1,1,1592,3,"Male","Heterosexual"
"S096","Opposite-sex_couple_048_h",27,2,7012,"red","Reality",1,1,2,1,1,2210,3,"Male","Heterosexual"
"S096","Female_021_h",28,2,8440,"green","Fiction",4,5,5,1,1,2393,2,"Male","Heterosexual"
"S096","Female_015_v",29,2,5960,"red","Reality",3,2,2,1,1,2209,-2,"Male","Heterosexual"
"S096","Opposite-sex_couple_012_h",30,2,7278,"red","Reality",3,4,2,1,1,2269,2,"Male","Heterosexual"
"S096","Female_024_v",31,2,6003,"red","Reality",3,4,2,1,1,4429,0,"Male","Heterosexual"
"S096","Female_009_h",32,2,7499,"red","Reality",4,5,3,1,1,3486,-3,"Male","Heterosexual"
"S096","Female_023_h",33,2,5427,"green","Fiction",4,5,3,1,1,16322,0,"Male","Heterosexual"
"S096","Opposite-sex_couple_013_h",34,2,8674,"red","Reality",3,2,4,1,1,2477,-2,"Male","Heterosexual"
"S096","Female_013_h",35,2,7050,"green","Fiction",5,6,5,1,1,2297,-2,"Male","Heterosexual"
"S096","Opposite-sex_couple_018_h",36,2,7215,"green","Fiction",2,3,3,1,1,2257,-1,"Male","Heterosexual"
"S096","Female_019_h",37,2,5610,"red","Reality",4,5,4,1,1,2066,3,"Male","Heterosexual"
"S096","Opposite-sex_couple_001_v",38,2,8306,"red","Reality",1,0,2,1,1,2030,-1,"Male","Heterosexual"
"S096","Female_006_v",39,2,4761,"green","Fiction",1,1,1,1,1,3200,3,"Male","Heterosexual"
"S096","Opposite-sex_couple_002_h",40,2,5232,"green","Fiction",0,1,0,1,1,1856,2,"Male","Heterosexual"
"S096","Opposite-sex_couple_017_v",41,2,4848,"green","Fiction",1,1,1,1,1,2463,-1,"Male","Heterosexual"
"S096","Opposite-sex_couple_005_h",42,2,7725,"red","Reality",4,5,6,1,1,4161,0,"Male","Heterosexual"
"S096","Opposite-sex_couple_007_h",43,2,7723,"green","Fiction",2,3,2,1,1,2134,2,"Male","Heterosexual"
"S096","Female_022_h",44,2,5485,"green","Fiction",6,6,6,1,1,2213,1,"Male","Heterosexual"
"S096","Female_001_h",45,2,12364,"red","Reality",0,1,1,1,1,2575,1,"Male","Heterosexual"
"S096","Opposite-sex_couple_023_h",46,2,6278,"red","Reality",0,1,0,1,1,2133,3,"Male","Heterosexual"
"S096","Female_002_h",47,2,5067,"red","Reality",2,3,3,1,1,2568,-1,"Male","Heterosexual"
"S096","Female_011_h",48,2,6767,"red","Reality",0,1,0,1,1,1379,-3,"Male","Heterosexual"
"S096","Opposite-sex_couple_016_v",49,2,7449,"red","Reality",1,1,1,1,1,4199,2,"Male","Heterosexual"
"S096","Opposite-sex_couple_022_v",50,2,5871,"green","Fiction",0,0,0,1,1,2044,3,"Male","Heterosexual"
"S032","Opposite-sex_couple_018_h",1,2,23715,"green","Fiction",3,5,4,1,1,3904,3,"Male","Heterosexual"
"S032","Female_008_v",2,2,7493,"green","Fiction",4,5,5,1,1,1659,-1,"Male","Heterosexual"
"S032","Opposite-sex_couple_020_h",3,2,8848,"green","Fiction",3,4,4,1,1,3519,0,"Male","Heterosexual"
"S032","Female_010_h",4,2,5206,"green","Fiction",3,4,4,1,1,1401,-3,"Male","Heterosexual"
"S032","Female_016_h",5,2,9248,"green","Fiction",3,5,5,1,1,2258,2,"Male","Heterosexual"
"S032","Female_025_h",6,2,9781,"blue","Reality",3,5,5,1,1,2002,-1,"Male","Heterosexual"
"S032","Opposite-sex_couple_008_h",7,2,4710,"blue","Reality",4,5,5,1,1,1057,-3,"Male","Heterosexual"
"S032","Opposite-sex_couple_017_v",8,2,5722,"blue","Reality",3,5,5,1,1,2043,-1,"Male","Heterosexual"
"S032","Female_005_v",9,2,8997,"green","Fiction",2,3,3,1,1,3182,1,"Male","Heterosexual"
"S032","Opposite-sex_couple_042_h",10,2,5360,"blue","Reality",1,3,4,1,1,3961,-1,"Male","Heterosexual"
"S032","Opposite-sex_couple_002_h",11,2,6763,"blue","Reality",3,3,3,1,1,2135,-1,"Male","Heterosexual"
"S032","Female_021_h",12,2,8136,"green","Fiction",5,5,6,1,1,2072,-2,"Male","Heterosexual"
"S032","Opposite-sex_couple_048_h",13,2,5464,"green","Fiction",3,3,4,1,1,1524,2,"Male","Heterosexual"
"S032","Female_009_h",14,2,4697,"blue","Reality",5,5,5,1,1,3535,-1,"Male","Heterosexual"
"S032","Female_022_h",15,2,4878,"blue","Reality",5,5,6,1,1,2664,3,"Male","Heterosexual"
"S032","Opposite-sex_couple_009_h",16,2,7406,"blue","Reality",4,4,4,1,1,1080,-1,"Male","Heterosexual"
"S032","Female_020_v",17,2,4038,"green","Fiction",5,5,6,1,1,1602,3,"Male","Heterosexual"
"S032","Female_012_v",18,2,3502,"green","Fiction",4,5,5,1,1,1455,-1,"Male","Heterosexual"
"S032","Opposite-sex_couple_035_h",19,2,11854,"green","Fiction",1,1,3,1,1,2725,-1,"Male","Heterosexual"
"S032","Female_006_v",20,2,6752,"blue","Reality",6,6,6,1,1,1751,-1,"Male","Heterosexual"
"S032","Opposite-sex_couple_015_h",21,2,5261,"blue","Reality",4,5,5,1,1,1772,2,"Male","Heterosexual"
"S032","Opposite-sex_couple_014_h",22,2,10919,"green","Fiction",4,4,3,1,1,1732,1,"Male","Heterosexual"
"S032","Opposite-sex_couple_001_v",23,2,6232,"blue","Reality",2,3,3,1,1,1225,-3,"Male","Heterosexual"
"S032","Opposite-sex_couple_012_h",24,2,4548,"blue","Reality",5,5,5,1,1,1747,-1,"Male","Heterosexual"
"S032","Opposite-sex_couple_016_v",25,2,5013,"green","Fiction",3,4,4,1,1,1465,-1,"Male","Heterosexual"
"S032","Female_004_v",26,2,3769,"blue","Reality",4,5,5,1,1,1707,-2,"Male","Heterosexual"
"S032","Female_007_v",27,2,3843,"blue","Reality",4,5,5,1,1,1086,1,"Male","Heterosexual"
"S032","Opposite-sex_couple_025_h",28,2,3308,"blue","Reality",6,6,6,1,1,1650,-3,"Male","Heterosexual"
"S032","Female_002_h",29,2,3727,"green","Fiction",5,5,5,1,1,2466,1,"Male","Heterosexual"
"S032","Opposite-sex_couple_022_v",30,2,15564,"blue","Reality",3,3,3,1,1,1085,-3,"Male","Heterosexual"
"S032","Opposite-sex_couple_033_v",31,2,4026,"green","Fiction",4,4,5,1,1,2091,1,"Male","Heterosexual"
"S032","Opposite-sex_couple_047_v",32,2,8179,"green","Fiction",0,0,3,1,1,2397,-3,"Male","Heterosexual"
"S032","Female_014_v",33,2,4787,"green","Fiction",4,4,3,1,1,1803,-3,"Male","Heterosexual"
"S032","Female_023_h",34,2,4648,"blue","Reality",5,5,5,1,1,1119,2,"Male","Heterosexual"
"S032","Female_018_h",35,2,4048,"blue","Reality",6,6,6,1,1,2249,2,"Male","Heterosexual"
"S032","Female_017_v",36,2,11134,"blue","Reality",5,5,5,1,1,2022,0,"Male","Heterosexual"
"S032","Female_015_v",37,2,5512,"blue","Reality",3,4,4,1,1,1060,-1,"Male","Heterosexual"
"S032","Female_013_h",38,2,4070,"green","Fiction",3,3,3,1,1,3135,-3,"Male","Heterosexual"
"S032","Opposite-sex_couple_023_h",39,2,7841,"blue","Reality",3,3,3,1,1,1702,-3,"Male","Heterosexual"
"S032","Female_001_h",40,2,3679,"blue","Reality",4,4,4,1,1,1669,3,"Male","Heterosexual"
"S032","Female_019_h",41,2,3687,"blue","Reality",5,5,6,1,1,3139,-1,"Male","Heterosexual"
"S032","Opposite-sex_couple_007_h",42,2,3855,"green","Fiction",2,3,3,1,1,2786,2,"Male","Heterosexual"
"S032","Opposite-sex_couple_005_h",43,2,4064,"blue","Reality",4,5,5,1,1,1410,2,"Male","Heterosexual"
"S032","Opposite-sex_couple_024_h",44,2,3481,"green","Fiction",5,5,5,1,1,2029,1,"Male","Heterosexual"
"S032","Opposite-sex_couple_013_h",45,2,7241,"green","Fiction",3,2,2,1,1,1338,-3,"Male","Heterosexual"
"S032","Female_003_v",46,2,4499,"green","Fiction",3,3,3,1,1,1491,1,"Male","Heterosexual"
"S032","Opposite-sex_couple_019_v",47,2,3819,"blue","Reality",0,0,3,1,1,2230,-3,"Male","Heterosexual"
"S032","Female_011_h",48,2,6629,"green","Fiction",4,4,4,1,1,1030,-3,"Male","Heterosexual"
"S032","Female_024_v",49,2,3580,"blue","Reality",4,4,4,1,1,2368,0,"Male","Heterosexual"
"S032","Opposite-sex_couple_011_h",50,2,7571,"green","Fiction",1,2,2,1,1,1870,-3,"Male","Heterosexual"
"S011","Female_007_v",1,2,6668,"red","Reality",6,6,6,1,1,1672,3,"Male","Heterosexual"
"S011","Opposite-sex_couple_014_h",2,2,5744,"red","Reality",6,6,6,1,1,2342,2,"Male","Heterosexual"
"S011","Female_004_v",3,2,4595,"red","Reality",6,6,6,1,1,1179,-3,"Male","Heterosexual"
"S011","Opposite-sex_couple_008_h",4,2,4334,"red","Reality",6,6,6,1,1,1218,2,"Male","Heterosexual"
"S011","Female_021_h",5,2,5357,"blue","Fiction",6,6,6,1,1,1305,-1,"Male","Heterosexual"
"S011","Opposite-sex_couple_002_h",6,2,3185,"blue","Fiction",6,6,5,1,1,975,3,"Male","Heterosexual"
"S011","Female_009_h",7,2,2924,"red","Reality",6,6,6,1,1,1425,3,"Male","Heterosexual"
"S011","Opposite-sex_couple_017_v",8,2,4682,"blue","Fiction",1,2,1,1,1,1007,3,"Male","Heterosexual"
"S011","Opposite-sex_couple_016_v",9,2,2888,"red","Reality",1,3,2,1,1,1068,-1,"Male","Heterosexual"
"S011","Opposite-sex_couple_047_v",10,2,2682,"blue","Fiction",0,0,0,1,1,1216,-2,"Male","Heterosexual"
"S011","Opposite-sex_couple_013_h",11,2,6413,"red","Reality",3,2,2,1,1,1582,-2,"Male","Heterosexual"
"S011","Female_011_h",12,2,5098,"blue","Fiction",4,3,2,1,1,1003,-3,"Male","Heterosexual"
"S011","Female_012_v",13,2,3444,"blue","Fiction",4,3,2,1,1,1212,-2,"Male","Heterosexual"
"S011","Opposite-sex_couple_020_h",14,2,4261,"blue","Fiction",1,1,1,1,1,935,3,"Male","Heterosexual"
"S011","Female_024_v",15,2,3274,"red","Reality",3,1,1,1,1,915,2,"Male","Heterosexual"
"S011","Female_014_v",16,2,2589,"red","Reality",0,0,0,1,1,915,3,"Male","Heterosexual"
"S011","Female_015_v",17,2,2937,"blue","Fiction",1,1,1,1,1,1257,-3,"Male","Heterosexual"
"S011","Opposite-sex_couple_001_v",18,2,2548,"blue","Fiction",2,0,1,1,1,4939,3,"Male","Heterosexual"
"S011","Opposite-sex_couple_042_h",19,2,2492,"blue","Fiction",0,1,1,1,1,995,-3,"Male","Heterosexual"
"S011","Female_018_h",20,2,4056,"red","Reality",6,6,5,1,1,998,2,"Male","Heterosexual"
"S011","Female_023_h",21,2,3404,"blue","Fiction",6,6,6,1,1,1267,2,"Male","Heterosexual"
"S011","Female_025_h",22,2,2469,"blue","Fiction",0,1,0,1,1,8776,2,"Male","Heterosexual"
"S011","Opposite-sex_couple_019_v",23,2,2636,"red","Reality",0,0,0,1,1,1092,-3,"Male","Heterosexual"
"S011","Female_001_h",24,2,3440,"red","Reality",5,5,5,1,1,1346,3,"Male","Heterosexual"
"S011","Opposite-sex_couple_048_h",25,2,2632,"blue","Fiction",1,1,1,1,1,1014,2,"Male","Heterosexual"
"S011","Opposite-sex_couple_023_h",26,2,3476,"blue","Fiction",2,3,2,1,1,1066,-2,"Male","Heterosexual"
"S011","Opposite-sex_couple_009_h",27,2,2810,"red","Reality",2,1,1,1,1,1116,3,"Male","Heterosexual"
"S011","Opposite-sex_couple_015_h",28,2,2730,"red","Reality",4,4,6,1,1,970,3,"Male","Heterosexual"
"S011","Female_013_h",29,2,3483,"red","Reality",6,5,6,1,1,1334,-1,"Male","Heterosexual"
"S011","Opposite-sex_couple_033_v",30,2,2621,"red","Reality",5,5,5,1,1,1424,2,"Male","Heterosexual"
"S011","Female_002_h",31,2,2549,"red","Reality",6,6,6,1,1,1188,2,"Male","Heterosexual"
"S011","Opposite-sex_couple_018_h",32,2,3295,"red","Reality",6,6,6,1,1,1023,3,"Male","Heterosexual"
"S011","Female_006_v",33,2,4207,"red","Reality",6,5,6,1,1,1642,3,"Male","Heterosexual"
"S011","Female_019_h",34,2,3215,"red","Reality",6,6,6,1,1,965,3,"Male","Heterosexual"
"S011","Female_005_v",35,2,2638,"blue","Fiction",6,6,6,1,1,1116,3,"Male","Heterosexual"
"S011","Opposite-sex_couple_024_h",36,2,3615,"red","Reality",6,6,6,1,1,1072,3,"Male","Heterosexual"
"S011","Female_020_v",37,2,3404,"blue","Fiction",6,6,6,1,1,1238,3,"Male","Heterosexual"
"S011","Opposite-sex_couple_007_h",38,2,3666,"blue","Fiction",2,1,2,1,1,1719,-2,"Male","Heterosexual"
"S011","Female_017_v",39,2,2754,"blue","Fiction",5,5,5,1,1,2185,-1,"Male","Heterosexual"
"S011","Female_010_h",40,2,3119,"red","Reality",6,6,4,1,1,1960,1,"Male","Heterosexual"
"S011","Opposite-sex_couple_035_h",41,2,3834,"blue","Fiction",0,1,3,1,1,1728,-3,"Male","Heterosexual"
"S011","Opposite-sex_couple_022_v",42,2,2139,"red","Reality",0,0,0,1,1,950,3,"Male","Heterosexual"
"S011","Opposite-sex_couple_025_h",43,2,2660,"red","Reality",6,5,6,1,1,1797,2,"Male","Heterosexual"
"S011","Female_008_v",44,2,3557,"blue","Fiction",6,6,6,1,1,1097,1,"Male","Heterosexual"
"S011","Female_016_h",45,2,2555,"red","Reality",0,0,0,1,1,980,-3,"Male","Heterosexual"
"S011","Opposite-sex_couple_005_h",46,2,3021,"blue","Fiction",5,5,6,1,1,864,3,"Male","Heterosexual"
"S011","Opposite-sex_couple_011_h",47,2,3197,"red","Reality",2,5,4,1,1,1119,2,"Male","Heterosexual"
"S011","Opposite-sex_couple_012_h",48,2,2479,"blue","Fiction",6,6,6,1,1,1241,2,"Male","Heterosexual"
"S011","Female_022_h",49,2,2760,"blue","Fiction",6,6,6,1,1,9546,1,"Male","Heterosexual"
"S011","Female_003_v",50,2,2675,"blue","Fiction",5,5,4,1,1,1375,3,"Male","Heterosexual"
"S103","Female_014_v",1,2,7334,"red","Fiction",5,5,5,1,1,8724,1,"Male","Heterosexual"
"S103","Opposite-sex_couple_023_h",2,2,6191,"blue","Reality",5,4,4,1,1,2561,1,"Male","Heterosexual"
"S103","Female_013_h",3,2,7512,"red","Fiction",4,4,4,1,1,2737,1,"Male","Heterosexual"
"S103","Opposite-sex_couple_008_h",4,2,8719,"blue","Reality",5,5,4,1,1,2521,1,"Male","Heterosexual"
"S103","Female_019_h",5,2,5987,"red","Fiction",5,5,4,1,1,2750,-2,"Male","Heterosexual"
"S103","Female_024_v",6,2,5654,"blue","Reality",4,4,4,1,1,3253,-1,"Male","Heterosexual"
"S103","Opposite-sex_couple_007_h",7,2,5190,"blue","Reality",3,3,3,1,1,2960,0,"Male","Heterosexual"
"S103","Female_015_v",8,2,6219,"red","Fiction",4,5,5,1,1,2040,-2,"Male","Heterosexual"
"S103","Female_009_h",9,2,5907,"blue","Reality",5,5,5,1,1,2276,1,"Male","Heterosexual"
"S103","Opposite-sex_couple_014_h",10,2,7232,"blue","Reality",3,3,3,1,1,2458,-1,"Male","Heterosexual"
"S103","Opposite-sex_couple_024_h",11,2,7141,"red","Fiction",4,4,4,1,1,2820,0,"Male","Heterosexual"
"S103","Female_016_h",12,2,8032,"red","Fiction",5,4,4,1,1,1833,-3,"Male","Heterosexual"
"S103","Opposite-sex_couple_002_h",13,2,4536,"red","Fiction",4,4,4,1,1,2240,-2,"Male","Heterosexual"
"S103","Female_008_v",14,2,5363,"blue","Reality",2,2,2,1,1,2318,-2,"Male","Heterosexual"
"S103","Female_001_h",15,2,7079,"red","Fiction",4,4,4,1,1,2038,-3,"Male","Heterosexual"
"S103","Opposite-sex_couple_019_v",16,2,5034,"blue","Reality",2,2,2,1,1,3432,-1,"Male","Heterosexual"
"S103","Opposite-sex_couple_047_v",17,2,5727,"blue","Reality",4,4,4,1,1,2158,-3,"Male","Heterosexual"
"S103","Female_017_v",18,2,11311,"blue","Reality",4,4,3,1,1,1883,-2,"Male","Heterosexual"
"S103","Opposite-sex_couple_017_v",19,2,8798,"red","Fiction",4,4,4,1,1,2858,1,"Male","Heterosexual"
"S103","Opposite-sex_couple_005_h",20,2,9111,"blue","Reality",5,4,5,1,1,3740,1,"Male","Heterosexual"
"S103","Opposite-sex_couple_009_h",21,2,5129,"blue","Reality",3,3,3,1,1,1374,-2,"Male","Heterosexual"
"S103","Female_002_h",22,2,5396,"red","Fiction",5,4,4,1,1,1695,-2,"Male","Heterosexual"
"S103","Opposite-sex_couple_012_h",23,2,7622,"blue","Reality",4,4,3,1,1,1781,-1,"Male","Heterosexual"
"S103","Female_023_h",24,2,5511,"blue","Reality",3,3,3,1,1,1997,-2,"Male","Heterosexual"
"S103","Female_020_v",25,2,5166,"blue","Reality",3,3,3,1,1,2614,-1,"Male","Heterosexual"
"S103","Female_018_h",26,2,5257,"blue","Reality",5,5,4,1,1,2614,1,"Male","Heterosexual"
"S103","Opposite-sex_couple_018_h",27,2,5327,"blue","Reality",5,5,4,1,1,2210,-1,"Male","Heterosexual"
"S103","Opposite-sex_couple_001_v",28,2,4470,"blue","Reality",5,4,4,1,1,1968,-2,"Male","Heterosexual"
"S103","Opposite-sex_couple_042_h",29,2,5481,"red","Fiction",4,4,4,1,1,2192,1,"Male","Heterosexual"
"S103","Female_022_h",30,2,6757,"blue","Reality",4,4,4,1,1,2355,-3,"Male","Heterosexual"
"S103","Female_025_h",31,2,6101,"red","Fiction",4,4,4,1,1,2565,1,"Male","Heterosexual"
"S103","Opposite-sex_couple_020_h",32,2,5218,"red","Fiction",4,4,4,1,1,3465,1,"Male","Heterosexual"
"S103","Opposite-sex_couple_035_h",33,2,6306,"blue","Reality",3,3,3,1,1,2014,-2,"Male","Heterosexual"
"S103","Female_010_h",34,2,6036,"blue","Reality",4,4,4,1,1,1947,-2,"Male","Heterosexual"
"S103","Opposite-sex_couple_025_h",35,2,4998,"red","Fiction",4,4,4,1,1,2099,0,"Male","Heterosexual"
"S103","Female_006_v",36,2,6540,"blue","Reality",3,3,3,1,1,2331,-2,"Male","Heterosexual"
"S103","Female_021_h",37,2,5364,"red","Fiction",3,3,3,1,1,3376,0,"Male","Heterosexual"
"S103","Female_011_h",38,2,5761,"blue","Reality",4,3,3,1,1,1904,-3,"Male","Heterosexual"
"S103","Opposite-sex_couple_015_h",39,2,6677,"red","Fiction",4,4,3,1,1,2307,-2,"Male","Heterosexual"
"S103","Female_004_v",40,2,5951,"red","Fiction",4,3,3,1,1,2491,1,"Male","Heterosexual"
"S103","Female_012_v",41,2,4888,"blue","Reality",3,3,3,1,1,1804,-1,"Male","Heterosexual"
"S103","Opposite-sex_couple_016_v",42,2,4324,"red","Fiction",3,3,3,1,1,1795,-1,"Male","Heterosexual"
"S103","Opposite-sex_couple_013_h",43,2,5456,"red","Fiction",1,1,1,1,1,2366,2,"Male","Heterosexual"
"S103","Opposite-sex_couple_022_v",44,2,4514,"blue","Reality",4,3,3,1,1,3789,2,"Male","Heterosexual"
"S103","Opposite-sex_couple_011_h",45,2,4799,"red","Fiction",4,4,3,1,1,1788,-1,"Male","Heterosexual"
"S103","Female_005_v",46,2,6756,"blue","Reality",4,5,4,1,1,2573,0,"Male","Heterosexual"
"S103","Female_003_v",47,2,4510,"red","Fiction",4,4,3,1,1,1500,-1,"Male","Heterosexual"
"S103","Female_007_v",48,2,5217,"red","Fiction",3,3,3,1,1,2029,-2,"Male","Heterosexual"
"S103","Opposite-sex_couple_048_h",49,2,5660,"red","Fiction",3,3,3,1,1,3156,-1,"Male","Heterosexual"
"S103","Opposite-sex_couple_033_v",50,2,4922,"red","Fiction",3,3,3,1,1,2341,-1,"Male","Heterosexual"
"S077","Female_005_v",1,2,5234,"red","Reality",5,6,5,1,1,11496,2,"Male","Heterosexual"
"S077","Opposite-sex_couple_025_h",2,2,34986,"blue","Fiction",4,5,5,1,1,906,-3,"Male","Heterosexual"
"S077","Female_009_h",3,2,3635,"blue","Fiction",4,5,5,1,1,1056,-2,"Male","Heterosexual"
"S077","Female_012_v",4,2,2620,"red","Reality",5,6,4,1,1,1294,0,"Male","Heterosexual"
"S077","Opposite-sex_couple_017_v",5,2,5968,"red","Reality",2,2,2,1,1,4747,0,"Male","Heterosexual"
"S077","Opposite-sex_couple_013_h",6,2,4600,"red","Reality",2,2,2,1,1,912,2,"Male","Heterosexual"
"S077","Female_013_h",7,2,3651,"blue","Fiction",2,3,3,1,1,1195,-1,"Male","Heterosexual"
"S077","Opposite-sex_couple_008_h",8,2,2850,"red","Reality",4,5,4,1,1,4271,1,"Male","Heterosexual"
"S077","Opposite-sex_couple_019_v",9,2,2035,"red","Reality",0,0,0,1,1,4042,1,"Male","Heterosexual"
"S077","Opposite-sex_couple_047_v",10,2,2415,"red","Reality",1,1,1,1,1,3057,1,"Male","Heterosexual"
"S077","Female_025_h",11,2,2317,"blue","Fiction",3,4,3,1,1,1222,2,"Male","Heterosexual"
"S077","Female_015_v",12,2,1977,"red","Reality",4,3,3,1,1,995,1,"Male","Heterosexual"
"S077","Female_018_h",13,2,2841,"red","Reality",5,4,5,1,1,1206,2,"Male","Heterosexual"
"S077","Opposite-sex_couple_035_h",14,2,2488,"blue","Fiction",1,0,1,1,1,2072,-1,"Male","Heterosexual"
"S077","Opposite-sex_couple_009_h",15,2,2956,"red","Reality",4,5,4,1,1,4773,2,"Male","Heterosexual"
"S077","Opposite-sex_couple_014_h",16,2,2629,"red","Reality",4,5,5,1,1,10510,2,"Male","Heterosexual"
"S077","Opposite-sex_couple_005_h",17,2,5877,"blue","Fiction",4,5,5,1,1,2388,2,"Male","Heterosexual"
"S077","Opposite-sex_couple_016_v",18,2,3591,"blue","Fiction",4,3,3,1,1,1253,0,"Male","Heterosexual"
"S077","Opposite-sex_couple_048_h",19,2,3014,"blue","Fiction",2,2,2,1,1,21914,1,"Male","Heterosexual"
"S077","Female_007_v",20,2,2882,"blue","Fiction",3,2,2,1,1,1181,-2,"Male","Heterosexual"
"S077","Female_003_v",21,2,3469,"blue","Fiction",2,4,3,1,1,2933,0,"Male","Heterosexual"
"S077","Female_022_h",22,2,3732,"red","Reality",4,5,4,1,1,1987,1,"Male","Heterosexual"
"S077","Opposite-sex_couple_022_v",23,2,2884,"red","Reality",5,4,4,1,1,723,0,"Male","Heterosexual"
"S077","Female_002_h",24,2,2520,"blue","Fiction",5,5,5,1,1,6610,1,"Male","Heterosexual"
"S077","Opposite-sex_couple_018_h",25,2,2443,"blue","Fiction",4,5,4,1,1,2139,1,"Male","Heterosexual"
"S077","Female_004_v",26,2,2902,"red","Reality",5,5,5,1,1,920,2,"Male","Heterosexual"
"S077","Female_023_h",27,2,3803,"red","Reality",5,4,4,1,1,1116,0,"Male","Heterosexual"
"S077","Female_021_h",28,2,4901,"red","Reality",5,6,5,1,1,8235,1,"Male","Heterosexual"
"S077","Female_020_v",29,2,5171,"blue","Fiction",5,4,5,1,1,5478,1,"Male","Heterosexual"
"S077","Opposite-sex_couple_012_h",30,2,3008,"red","Reality",2,1,1,1,1,5375,2,"Male","Heterosexual"
"S077","Opposite-sex_couple_001_v",31,2,2524,"red","Reality",4,5,4,1,1,1629,0,"Male","Heterosexual"
"S077","Opposite-sex_couple_023_h",32,2,4081,"red","Reality",5,4,5,1,1,1821,0,"Male","Heterosexual"
"S077","Female_011_h",33,2,20675,"blue","Fiction",4,5,4,1,1,925,-2,"Male","Heterosexual"
"S077","Opposite-sex_couple_024_h",34,2,4734,"blue","Fiction",4,5,5,1,1,17085,1,"Male","Heterosexual"
"S077","Female_017_v",35,2,3356,"red","Reality",5,6,5,1,1,1072,2,"Male","Heterosexual"
"S077","Opposite-sex_couple_007_h",36,2,3051,"red","Reality",4,5,5,1,1,1501,1,"Male","Heterosexual"
"S077","Female_008_v",37,2,2726,"blue","Fiction",5,4,4,1,1,1124,-2,"Male","Heterosexual"
"S077","Female_019_h",38,2,14399,"red","Reality",5,4,5,1,1,1025,2,"Male","Heterosexual"
"S077","Female_006_v",39,2,5215,"red","Reality",5,4,5,1,1,6663,1,"Male","Heterosexual"
"S077","Female_001_h",40,2,5963,"red","Reality",6,5,5,1,1,967,1,"Male","Heterosexual"
"S077","Opposite-sex_couple_011_h",41,2,2136,"blue","Fiction",4,5,5,1,1,1719,1,"Male","Heterosexual"
"S077","Opposite-sex_couple_042_h",42,2,2068,"blue","Fiction",2,1,2,1,1,4233,1,"Male","Heterosexual"
"S077","Female_016_h",43,2,6018,"blue","Fiction",3,3,3,1,1,2882,-2,"Male","Heterosexual"
"S077","Opposite-sex_couple_002_h",44,2,2564,"red","Reality",5,4,3,1,1,801,0,"Male","Heterosexual"
"S077","Opposite-sex_couple_033_v",45,2,3524,"blue","Fiction",2,1,3,1,1,1496,-2,"Male","Heterosexual"
"S077","Opposite-sex_couple_015_h",46,2,2261,"blue","Fiction",3,2,3,1,1,1165,0,"Male","Heterosexual"
"S077","Female_010_h",47,2,3746,"blue","Fiction",4,5,4,1,1,1869,1,"Male","Heterosexual"
"S077","Female_024_v",48,2,2594,"blue","Fiction",5,4,4,1,1,810,1,"Male","Heterosexual"
"S077","Female_014_v",49,2,3718,"red","Reality",4,5,4,1,1,2649,0,"Male","Heterosexual"
"S077","Opposite-sex_couple_020_h",50,2,3323,"blue","Fiction",4,3,3,1,1,1485,0,"Male","Heterosexual"
"S005","Male_008_v",1,2,10262,"blue","Reality",5,5,4,1,1,1057,3,"Female","Heterosexual"
"S005","Opposite-sex_couple_016_v",2,2,7691,"blue","Reality",6,6,6,1,1,1136,3,"Female","Heterosexual"
"S005","Male_022_v",3,2,5438,"red","Fiction",0,0,0,1,1,3156,0,"Female","Heterosexual"
"S005","Male_004_v",4,2,5156,"blue","Reality",0,0,0,1,1,1873,-1,"Female","Heterosexual"
"S005","Male_017_v",5,2,5481,"blue","Reality",0,0,0,1,1,1158,3,"Female","Heterosexual"
"S005","Male_005_v",6,2,6637,"red","Fiction",4,4,4,1,1,1295,-3,"Female","Heterosexual"
"S005","Opposite-sex_couple_047_v",7,2,7834,"blue","Reality",3,3,2,1,1,1773,0,"Female","Heterosexual"
"S005","Male_007_h",8,2,4632,"red","Fiction",0,0,0,1,1,1167,3,"Female","Heterosexual"
"S005","Opposite-sex_couple_033_v",9,2,9190,"blue","Reality",5,6,6,1,1,976,3,"Female","Heterosexual"
"S005","Male_002_v",10,2,4676,"red","Fiction",0,0,0,1,1,1220,3,"Female","Heterosexual"
"S005","Opposite-sex_couple_008_h",11,2,7005,"blue","Reality",6,6,6,1,1,1137,3,"Female","Heterosexual"
"S005","Opposite-sex_couple_035_h",12,2,6438,"blue","Reality",3,4,4,1,1,1915,0,"Female","Heterosexual"
"S005","Opposite-sex_couple_017_v",13,2,5628,"red","Fiction",2,2,2,1,1,1014,3,"Female","Heterosexual"
"S005","Male_019_h",14,2,4440,"blue","Reality",0,0,0,1,1,1071,3,"Female","Heterosexual"
"S005","Male_023_v",15,2,7746,"red","Fiction",2,4,3,1,1,2668,3,"Female","Heterosexual"
"S005","Opposite-sex_couple_009_h",16,2,6840,"red","Fiction",6,6,6,1,1,1177,3,"Female","Heterosexual"
"S005","Male_012_h",17,2,4748,"blue","Reality",0,0,0,1,1,1893,-2,"Female","Heterosexual"
"S005","Opposite-sex_couple_048_h",18,2,6846,"blue","Reality",4,3,4,1,1,1554,3,"Female","Heterosexual"
"S005","Opposite-sex_couple_001_v",19,2,5928,"red","Fiction",2,2,2,1,1,1829,-3,"Female","Heterosexual"
"S005","Opposite-sex_couple_018_h",20,2,7976,"blue","Reality",6,6,6,1,1,2002,3,"Female","Heterosexual"
"S005","Opposite-sex_couple_025_h",21,2,4903,"red","Fiction",6,6,6,1,1,3172,3,"Female","Heterosexual"
"S005","Male_006_v",22,2,4065,"blue","Reality",0,0,0,1,1,1612,3,"Female","Heterosexual"
"S005","Male_024_h",23,2,4535,"red","Fiction",1,3,2,1,1,3354,-3,"Female","Heterosexual"
"S005","Opposite-sex_couple_012_h",24,2,5070,"blue","Reality",6,6,6,1,1,1317,3,"Female","Heterosexual"
"S005","Male_021_h",25,2,3808,"red","Fiction",0,0,0,1,1,2815,3,"Female","Heterosexual"
"S005","Opposite-sex_couple_014_h",26,2,5984,"blue","Reality",2,2,2,1,1,1553,3,"Female","Heterosexual"
"S005","Opposite-sex_couple_019_v",27,2,8552,"red","Fiction",0,5,4,1,1,1965,-3,"Female","Heterosexual"
"S005","Male_001_v",28,2,5456,"red","Fiction",0,0,0,1,1,1006,0,"Female","Heterosexual"
"S005","Male_010_v",29,2,7312,"red","Fiction",0,4,2,1,1,1149,3,"Female","Heterosexual"
"S005","Male_014_v",30,2,5172,"blue","Reality",3,3,4,1,1,2020,0,"Female","Heterosexual"
"S005","Male_020_v",31,2,5077,"blue","Reality",0,0,0,1,1,3746,-3,"Female","Heterosexual"
"S005","Male_011_v",32,2,3789,"red","Fiction",0,0,0,1,1,2021,1,"Female","Heterosexual"
"S005","Male_025_v",33,2,4365,"red","Fiction",0,0,0,1,1,2374,3,"Female","Heterosexual"
"S005","Male_016_v",34,2,3834,"blue","Reality",0,0,0,1,1,1623,3,"Female","Heterosexual"
"S005","Opposite-sex_couple_013_h",35,2,5382,"blue","Reality",0,0,0,1,1,1838,3,"Female","Heterosexual"
"S005","Male_003_v",36,2,6170,"blue","Reality",2,5,3,1,1,1832,2,"Female","Heterosexual"
"S005","Opposite-sex_couple_020_h",37,2,5177,"red","Fiction",5,5,4,1,1,1979,-3,"Female","Heterosexual"
"S005","Opposite-sex_couple_005_h",38,2,5396,"red","Fiction",6,6,6,1,1,1183,3,"Female","Heterosexual"
"S005","Opposite-sex_couple_002_h",39,2,6653,"red","Fiction",6,6,6,1,1,1316,3,"Female","Heterosexual"
"S005","Male_013_v",40,2,3821,"blue","Reality",0,0,0,1,1,1155,3,"Female","Heterosexual"
"S005","Opposite-sex_couple_042_h",41,2,7267,"red","Fiction",0,4,4,1,1,1882,3,"Female","Heterosexual"
"S005","Opposite-sex_couple_022_v",42,2,4515,"blue","Reality",0,0,0,1,1,1000,3,"Female","Heterosexual"
"S005","Male_018_v",43,2,4513,"blue","Reality",0,0,0,1,1,1873,0,"Female","Heterosexual"
"S005","Male_009_v",44,2,6740,"red","Fiction",2,5,3,1,1,1836,0,"Female","Heterosexual"
"S005","Opposite-sex_couple_023_h",45,2,4118,"blue","Reality",0,0,0,1,1,1226,0,"Female","Heterosexual"
"S005","Opposite-sex_couple_024_h",46,2,5333,"red","Fiction",0,0,0,1,1,1800,3,"Female","Heterosexual"
"S005","Opposite-sex_couple_015_h",47,2,7649,"red","Fiction",3,2,2,1,1,2144,3,"Female","Heterosexual"
"S005","Opposite-sex_couple_011_h",48,2,4089,"red","Fiction",3,2,2,1,1,1001,3,"Female","Heterosexual"
"S005","Opposite-sex_couple_007_h",49,2,6768,"blue","Reality",0,2,2,1,1,1382,3,"Female","Heterosexual"
"S005","Male_015_v",50,2,4150,"blue","Reality",0,0,0,1,1,1540,0,"Female","Heterosexual"
"S018","Male_017_v",1,2,12307,"red","Fiction",5,6,4,1,1,1960,-3,"Female","Heterosexual"
"S018","Opposite-sex_couple_009_h",2,2,9287,"red","Fiction",3,5,4,1,1,2030,3,"Female","Heterosexual"
"S018","Male_014_v",3,2,11499,"red","Fiction",3,5,6,1,1,1570,-2,"Female","Heterosexual"
"S018","Opposite-sex_couple_020_h",4,2,9433,"blue","Reality",2,3,3,1,1,1412,-3,"Female","Heterosexual"
"S018","Male_011_v",5,2,9614,"blue","Reality",0,2,2,1,1,3472,-2,"Female","Heterosexual"
"S018","Male_022_v",6,2,11514,"red","Fiction",3,5,4,1,1,3541,-3,"Female","Heterosexual"
"S018","Male_023_v",7,2,7511,"blue","Reality",3,3,2,1,1,1994,-3,"Female","Heterosexual"
"S018","Opposite-sex_couple_022_v",8,2,6990,"blue","Reality",1,1,2,1,1,2024,3,"Female","Heterosexual"
"S018","Opposite-sex_couple_024_h",9,2,8213,"blue","Reality",0,1,0,1,1,2256,-3,"Female","Heterosexual"
"S018","Opposite-sex_couple_018_h",10,2,17093,"red","Fiction",4,4,5,1,1,2282,3,"Female","Heterosexual"
"S018","Male_018_v",11,2,9035,"red","Fiction",1,0,1,1,1,2635,-3,"Female","Heterosexual"
"S018","Opposite-sex_couple_019_v",12,2,7950,"red","Fiction",0,0,4,1,1,1497,-3,"Female","Heterosexual"
"S018","Opposite-sex_couple_014_h",13,2,12621,"blue","Reality",1,3,3,1,1,2870,0,"Female","Heterosexual"
"S018","Opposite-sex_couple_025_h",14,2,13312,"blue","Reality",3,5,4,1,1,1401,-3,"Female","Heterosexual"
"S018","Male_013_v",15,2,9534,"blue","Reality",1,2,3,1,1,2104,-1,"Female","Heterosexual"
"S018","Opposite-sex_couple_017_v",16,2,6874,"blue","Reality",2,3,3,1,1,2795,3,"Female","Heterosexual"
"S018","Opposite-sex_couple_048_h",17,2,6601,"red","Fiction",1,4,3,1,1,3381,3,"Female","Heterosexual"
"S018","Opposite-sex_couple_007_h",18,2,7461,"red","Fiction",0,1,1,1,1,1923,-2,"Female","Heterosexual"
"S018","Opposite-sex_couple_035_h",19,2,9535,"blue","Reality",1,0,2,1,1,1845,3,"Female","Heterosexual"
"S018","Male_016_v",20,2,12601,"blue","Reality",4,4,4,1,1,1687,-3,"Female","Heterosexual"
"S018","Male_003_v",21,2,10849,"blue","Reality",1,5,3,1,1,2270,3,"Female","Heterosexual"
"S018","Male_009_v",22,2,11096,"blue","Reality",0,2,3,1,1,1551,-3,"Female","Heterosexual"
"S018","Male_019_h",23,2,6803,"blue","Reality",3,5,4,1,1,2756,3,"Female","Heterosexual"
"S018","Opposite-sex_couple_042_h",24,2,6766,"red","Fiction",0,1,3,1,1,3496,2,"Female","Heterosexual"
"S018","Male_012_h",25,2,11149,"red","Fiction",2,4,4,1,1,1883,-3,"Female","Heterosexual"
"S018","Male_006_v",26,2,9089,"blue","Reality",4,5,3,1,1,2265,2,"Female","Heterosexual"
"S018","Male_015_v",27,2,7080,"red","Fiction",0,2,2,1,1,2148,2,"Female","Heterosexual"
"S018","Male_024_h",28,2,6134,"blue","Reality",2,3,3,1,1,1562,-3,"Female","Heterosexual"
"S018","Opposite-sex_couple_011_h",29,2,6488,"red","Fiction",0,1,0,1,1,1186,-3,"Female","Heterosexual"
"S018","Male_020_v",30,2,6467,"red","Fiction",1,2,2,1,1,2000,-3,"Female","Heterosexual"
"S018","Male_005_v",31,2,10183,"blue","Reality",1,3,3,1,1,2458,-3,"Female","Heterosexual"
"S018","Opposite-sex_couple_013_h",32,2,7374,"red","Fiction",0,3,3,1,1,2299,-3,"Female","Heterosexual"
"S018","Opposite-sex_couple_015_h",33,2,8259,"red","Fiction",1,1,2,1,1,1765,-3,"Female","Heterosexual"
"S018","Opposite-sex_couple_005_h",34,2,9092,"red","Fiction",4,4,5,1,1,1600,-3,"Female","Heterosexual"
"S018","Male_010_v",35,2,6218,"red","Fiction",0,1,2,1,1,2198,-2,"Female","Heterosexual"
"S018","Male_002_v",36,2,7417,"red","Fiction",1,1,3,1,1,2752,-2,"Female","Heterosexual"
"S018","Male_007_h",37,2,6841,"red","Fiction",0,1,2,1,1,2769,1,"Female","Heterosexual"
"S018","Opposite-sex_couple_016_v",38,2,10809,"blue","Reality",0,0,2,1,1,2242,-1,"Female","Heterosexual"
"S018","Male_008_v",39,2,10934,"red","Fiction",2,4,3,1,1,2308,-2,"Female","Heterosexual"
"S018","Opposite-sex_couple_012_h",40,2,6556,"red","Fiction",5,6,5,1,1,1460,-3,"Female","Heterosexual"
"S018","Male_004_v",41,2,7825,"blue","Reality",4,4,4,1,1,1845,3,"Female","Heterosexual"
"S018","Opposite-sex_couple_002_h",42,2,7929,"red","Fiction",1,3,2,1,1,1723,-3,"Female","Heterosexual"
"S018","Opposite-sex_couple_001_v",43,2,13472,"blue","Reality",1,2,3,1,1,1393,-3,"Female","Heterosexual"
"S018","Opposite-sex_couple_047_v",44,2,8049,"blue","Reality",0,0,3,1,1,2624,3,"Female","Heterosexual"
"S018","Male_025_v",45,2,6507,"red","Fiction",0,0,1,1,1,5120,3,"Female","Heterosexual"
"S018","Opposite-sex_couple_023_h",46,2,8098,"blue","Reality",1,2,3,1,1,1487,-3,"Female","Heterosexual"
"S018","Opposite-sex_couple_033_v",47,2,7265,"blue","Reality",1,2,3,1,1,1541,3,"Female","Heterosexual"
"S018","Opposite-sex_couple_008_h",48,2,6699,"blue","Reality",6,6,6,1,1,2153,2,"Female","Heterosexual"
"S018","Male_001_v",49,2,10028,"blue","Reality",0,2,3,1,1,1626,2,"Female","Heterosexual"
"S018","Male_021_h",50,2,7762,"blue","Reality",1,3,4,1,1,1375,-3,"Female","Heterosexual"
"S023","Male_018_v",1,2,4030,"green","Fiction",0,0,0,1,1,839,-3,"Female","Heterosexual"
"S023","Opposite-sex_couple_011_h",2,2,4262,"blue","Reality",1,2,1,1,1,772,1,"Female","Heterosexual"
"S023","Opposite-sex_couple_009_h",3,2,9350,"green","Fiction",4,4,5,1,1,1217,1,"Female","Heterosexual"
"S023","Male_009_v",4,2,4908,"green","Fiction",0,0,0,1,1,1647,1,"Female","Heterosexual"
"S023","Opposite-sex_couple_002_h",5,2,3940,"green","Fiction",4,5,5,1,1,949,1,"Female","Heterosexual"
"S023","Male_011_v",6,2,2703,"green","Fiction",0,0,0,1,1,972,2,"Female","Heterosexual"
"S023","Male_010_v",7,2,5857,"green","Fiction",2,3,1,1,1,887,-1,"Female","Heterosexual"
"S023","Male_021_h",8,2,5727,"blue","Reality",1,2,0,1,1,1298,-2,"Female","Heterosexual"
"S023","Male_004_v",9,2,3838,"green","Fiction",4,5,2,1,1,1186,1,"Female","Heterosexual"
"S023","Opposite-sex_couple_018_h",10,2,7272,"blue","Reality",2,0,0,1,1,1004,0,"Female","Heterosexual"
"S023","Male_020_v",11,2,3152,"blue","Reality",1,1,1,1,1,1260,-3,"Female","Heterosexual"
"S023","Male_001_v",12,2,2548,"blue","Reality",0,0,0,1,1,1036,1,"Female","Heterosexual"
"S023","Opposite-sex_couple_008_h",13,2,3509,"blue","Reality",3,4,3,1,1,809,-1,"Female","Heterosexual"
"S023","Male_016_v",14,2,3607,"green","Fiction",0,0,2,1,1,1123,-2,"Female","Heterosexual"
"S023","Male_014_v",15,2,4498,"green","Fiction",0,0,0,1,1,1051,-2,"Female","Heterosexual"
"S023","Opposite-sex_couple_013_h",16,2,2954,"blue","Reality",0,0,0,1,1,1217,-2,"Female","Heterosexual"
"S023","Opposite-sex_couple_042_h",17,2,2533,"green","Fiction",4,5,5,1,1,995,-1,"Female","Heterosexual"
"S023","Male_002_v",18,2,3914,"green","Fiction",0,2,0,1,1,803,0,"Female","Heterosexual"
"S023","Opposite-sex_couple_024_h",19,2,3669,"green","Fiction",0,0,0,1,1,1228,-1,"Female","Heterosexual"
"S023","Opposite-sex_couple_023_h",20,2,3587,"blue","Reality",2,1,2,1,1,784,2,"Female","Heterosexual"
"S023","Opposite-sex_couple_016_v",21,2,2509,"green","Fiction",0,0,2,1,1,1197,1,"Female","Heterosexual"
"S023","Male_019_h",22,2,3785,"blue","Reality",0,0,3,1,1,1174,-1,"Female","Heterosexual"
"S023","Opposite-sex_couple_048_h",23,2,3732,"green","Fiction",0,0,3,1,1,1787,2,"Female","Heterosexual"
"S023","Male_008_v",24,2,2599,"blue","Reality",0,0,0,1,1,1066,-3,"Female","Heterosexual"
"S023","Male_017_v",25,2,4296,"green","Fiction",0,0,0,1,1,3158,-2,"Female","Heterosexual"
"S023","Male_007_h",26,2,3562,"green","Fiction",1,0,0,1,1,892,1,"Female","Heterosexual"
"S023","Male_006_v",27,2,2879,"blue","Reality",0,0,0,1,1,833,1,"Female","Heterosexual"
"S023","Opposite-sex_couple_001_v",28,2,2400,"blue","Reality",2,2,2,1,1,1014,2,"Female","Heterosexual"
"S023","Male_003_v",29,2,3113,"blue","Reality",0,0,3,1,1,1524,0,"Female","Heterosexual"
"S023","Male_015_v",30,2,2731,"blue","Reality",0,0,4,1,1,1366,2,"Female","Heterosexual"
"S023","Male_025_v",31,2,2937,"green","Fiction",0,0,2,1,1,1051,2,"Female","Heterosexual"
"S023","Opposite-sex_couple_035_h",32,2,4226,"blue","Reality",2,3,4,1,1,1105,0,"Female","Heterosexual"
"S023","Opposite-sex_couple_005_h",33,2,3694,"green","Fiction",0,0,0,1,1,2029,-3,"Female","Heterosexual"
"S023","Opposite-sex_couple_025_h",34,2,3441,"blue","Reality",0,0,0,1,1,1838,-1,"Female","Heterosexual"
"S023","Opposite-sex_couple_012_h",35,2,2728,"blue","Reality",0,0,0,1,1,1250,0,"Female","Heterosexual"
"S023","Opposite-sex_couple_007_h",36,2,3556,"green","Fiction",3,3,3,1,1,1089,1,"Female","Heterosexual"
"S023","Opposite-sex_couple_014_h",37,2,11070,"blue","Reality",0,0,0,1,1,1111,2,"Female","Heterosexual"
"S023","Opposite-sex_couple_033_v",38,2,4010,"blue","Reality",0,2,3,1,1,1327,3,"Female","Heterosexual"
"S023","Male_023_v",39,2,2877,"blue","Reality",3,4,4,1,1,2053,2,"Female","Heterosexual"
"S023","Opposite-sex_couple_015_h",40,2,2970,"blue","Reality",2,2,5,1,1,903,1,"Female","Heterosexual"
"S023","Opposite-sex_couple_020_h",41,2,2728,"green","Fiction",3,4,4,1,1,1639,0,"Female","Heterosexual"
"S023","Male_024_h",42,2,3225,"blue","Reality",4,4,5,1,1,1284,-3,"Female","Heterosexual"
"S023","Opposite-sex_couple_019_v",43,2,4375,"green","Fiction",2,2,5,1,1,1242,-2,"Female","Heterosexual"
"S023","Opposite-sex_couple_022_v",44,2,6265,"green","Fiction",1,1,4,1,1,808,1,"Female","Heterosexual"
"S023","Male_022_v",45,2,3857,"blue","Reality",0,0,0,1,1,1749,-1,"Female","Heterosexual"
"S023","Opposite-sex_couple_047_v",46,2,3573,"blue","Reality",0,0,0,1,1,909,2,"Female","Heterosexual"
"S023","Opposite-sex_couple_017_v",47,2,2678,"green","Fiction",0,0,0,1,1,803,2,"Female","Heterosexual"
"S023","Male_013_v",48,2,2795,"blue","Reality",0,0,0,1,1,829,2,"Female","Heterosexual"
"S023","Male_005_v",49,2,3026,"green","Fiction",0,0,0,1,1,1483,-1,"Female","Heterosexual"
"S023","Male_012_h",50,2,3293,"blue","Reality",0,0,3,1,1,1274,-1,"Female","Heterosexual"
"S054","Opposite-sex_couple_019_v",1,2,13571,"red","Reality",3,4,4,1,1,1447,3,"Male","Heterosexual"
"S054","Female_006_v",2,2,9597,"red","Reality",4,5,5,1,1,3539,-3,"Male","Heterosexual"
"S054","Female_016_h",3,2,12305,"red","Reality",4,6,5,1,1,6384,-1,"Male","Heterosexual"
"S054","Female_010_h",4,2,6428,"red","Reality",5,5,5,1,1,1468,3,"Male","Heterosexual"
"S054","Female_014_v",5,2,10823,"green","Fiction",4,4,5,1,1,1887,-3,"Male","Heterosexual"
"S054","Female_009_h",6,2,7508,"green","Fiction",5,5,5,1,1,3604,-2,"Male","Heterosexual"
