Participant,Stimulus,Trial_Order_Phase1,Trial_Duration_Phase1,Rating_RT_Phase1,Cue_Color,Condition,Arousal,Enticing,Valence,Trial_Order_Phase2,Trial_Duration_Phase2,Rating_RT_Phase2,Realness,Category,Orientation,Luminance,Contrast,Entropy,Complexity,Red,Green,Norms_Valence,Norms_Arousal
S252,Female_015_v,1.0,2.0,7151.0,red,Reality,2,4,4,1.0,1.0,1680.0,-2,Female,v,65.2389,53.402,7.5418,171124,8.0169,14.7847,13.7,9.6
S252,Opposite-sex_couple_047_v,2.0,2.0,6374.0,blue,Fiction,1,3,4,1.0,1.0,1220.0,2,Opposite-sex Couple,v,45.5275,63.8914,7.6091,248159,4.3116,8.5673,13.05,9.5
S252,Opposite-sex_couple_011_h,3.0,2.0,8326.0,blue,Fiction,2,3,5,1.0,1.0,905.0,2,Opposite-sex Couple,h,52.5903,78.465,7.7598,283429,6.8592,8.7999,13.65,9.1
S252,Female_003_v,4.0,2.0,4696.0,red,Reality,0,1,3,1.0,1.0,845.0,-1,Female,v,71.1543,54.6216,7.4449,118707,7.0815,2.7069,12.4,9.95
S252,Female_016_h,5.0,2.0,10810.0,blue,Fiction,1,2,3,1.0,1.0,2023.0,-1,Female,h,52.7456,37.7359,7.2035,198286,33.7434,20.4305,12.5,8.0
S252,Opposite-sex_couple_020_h,6.0,2.0,4983.0,blue,Fiction,2,5,5,1.0,1.0,1774.0,-1,Opposite-sex Couple,h,55.3482,59.7471,7.2655,248017,-1.1208,-1.4586,13.3,10.55
S252,Opposite-sex_couple_023_h,7.0,2.0,5247.0,red,Reality,4,5,5,1.0,1.0,2291.0,-2,Opposite-sex Couple,h,31.8043,72.0881,7.0663,190248,3.3207,4.7035,13.35,10.8
S252,Opposite-sex_couple_042_h,8.0,2.0,5470.0,red,Reality,0,3,5,1.0,1.0,1045.0,3,Opposite-sex Couple,h,49.6856,40.9533,7.2635,179529,29.7156,31.0599,13.55,9.25
S252,Female_025_h,9.0,2.0,4595.0,blue,Fiction,4,5,5,1.0,1.0,2648.0,1,Female,h,73.3617,60.3781,7.5139,216382,5.3208,0.3346,12.35,9.0
S252,Opposite-sex_couple_024_h,10.0,2.0,7395.0,red,Reality,5,5,4,1.0,1.0,1568.0,-1,Opposite-sex Couple,h,63.8212,64.8712,7.414,222144,5.895,13.5005,13.2,11.35
S252,Female_024_v,11.0,2.0,4119.0,red,Reality,1,1,3,1.0,1.0,880.0,-2,Female,v,19.0471,55.6639,6.7429,165161,4.39,1.2286,12.95,9.35
S252,Opposite-sex_couple_002_h,12.0,2.0,7031.0,red,Reality,4,5,5,1.0,1.0,2606.0,-2,Opposite-sex Couple,h,60.763,82.3112,7.7336,244927,8.5758,13.1763,13.2,10.55
S252,Female_007_v,13.0,2.0,4356.0,red,Reality,0,2,3,1.0,1.0,1768.0,1,Female,v,41.4323,63.1534,7.4045,138365,-1.8072,2.4653,12.95,8.55
S252,Opposite-sex_couple_025_h,14.0,2.0,6510.0,red,Reality,5,3,4,1.0,1.0,2941.0,1,Opposite-sex Couple,h,43.3354,49.8527,7.4546,232724,16.8426,26.7224,12.9,11.9
S252,Female_013_h,15.0,2.0,4179.0,red,Reality,1,1,3,1.0,1.0,1766.0,0,Female,h,21.5101,68.6277,4.6639,137297,3.4277,3.1779,12.1,10.0
S252,Female_008_v,16.0,2.0,4623.0,red,Reality,3,5,5,1.0,1.0,1022.0,1,Female,v,52.8173,72.8334,7.4938,155798,1.2756,4.492,11.85,8.45
S252,Female_021_h,17.0,2.0,5768.0,blue,Fiction,2,3,3,1.0,1.0,1762.0,-1,Female,h,62.5048,59.7605,7.3816,237825,8.8278,10.335,11.4,10.75
S252,Opposite-sex_couple_015_h,18.0,2.0,4085.0,red,Reality,4,5,5,1.0,1.0,1243.0,1,Opposite-sex Couple,h,38.3611,75.1764,7.5486,164951,6.0222,7.7653,13.95,10.4
S252,Opposite-sex_couple_035_h,19.0,2.0,3507.0,red,Reality,1,5,5,1.0,1.0,964.0,3,Opposite-sex Couple,h,35.914,62.0043,7.6422,417587,5.8165,15.5562,13.3,9.2
S252,Opposite-sex_couple_016_v,20.0,2.0,6794.0,blue,Fiction,4,5,5,1.0,1.0,2466.0,-1,Opposite-sex Couple,v,25.8676,34.2728,6.9387,193991,15.3644,22.8825,14.1,10.4
S252,Female_019_h,21.0,2.0,4810.0,blue,Fiction,1,2,3,1.0,1.0,1289.0,-1,Female,h,48.6266,36.3153,7.1507,254048,23.4717,33.9492,11.5,9.15
S252,Female_011_h,22.0,2.0,4609.0,blue,Fiction,3,5,5,1.0,1.0,1205.0,-3,Female,h,59.689,56.5583,7.4167,142606,7.0771,8.9211,13.65,9.3
S252,Female_014_v,23.0,2.0,5021.0,blue,Fiction,0,2,3,1.0,1.0,2175.0,2,Female,v,63.681,76.0052,7.242,187483,5.436,12.6621,12.7,9.25
S252,Female_009_h,24.0,2.0,4797.0,red,Reality,3,4,5,1.0,1.0,2382.0,-1,Female,h,43.0143,73.5278,6.6181,176869,11.341,22.514,12.0,10.25
S252,Female_012_v,25.0,2.0,4827.0,red,Reality,2,4,5,1.0,1.0,1924.0,1,Female,v,57.6698,65.0532,7.8207,207243,4.5309,8.2501,12.75,9.3
S252,Female_006_v,26.0,2.0,5536.0,red,Reality,5,5,6,1.0,1.0,2067.0,2,Female,v,63.1318,63.865,7.7492,186016,2.4502,14.6292,12.2,8.95
S252,Opposite-sex_couple_017_v,27.0,2.0,4197.0,blue,Fiction,2,3,4,1.0,1.0,1863.0,1,Opposite-sex Couple,v,23.5619,43.2164,6.988,199604,6.3891,5.0569,13.75,11.35
S252,Female_020_v,28.0,2.0,4986.0,red,Reality,2,2,4,1.0,1.0,3152.0,0,Female,v,50.7307,36.7955,7.0191,173444,4.4367,4.5166,12.25,10.4
S252,Female_001_h,29.0,2.0,4318.0,blue,Fiction,1,1,3,1.0,1.0,1128.0,-2,Female,h,58.36,49.2428,7.2143,249227,27.1818,10.7039,12.3,8.65
S252,Opposite-sex_couple_007_h,30.0,2.0,4872.0,blue,Fiction,1,4,4,1.0,1.0,1146.0,2,Opposite-sex Couple,h,22.6458,57.3072,6.5328,275394,12.4804,7.915,13.3,10.4
S252,Female_018_h,31.0,2.0,5247.0,blue,Fiction,3,4,5,1.0,1.0,1378.0,-2,Female,h,73.3265,38.1936,6.9748,275330,3.457,12.5327,12.85,10.6
S252,Opposite-sex_couple_008_h,32.0,2.0,5596.0,blue,Fiction,4,5,5,1.0,1.0,1825.0,-1,Opposite-sex Couple,h,16.5249,51.7477,4.6123,119546,6.2003,7.9397,13.7,10.9
S252,Opposite-sex_couple_009_h,33.0,2.0,4816.0,red,Reality,5,5,6,1.0,1.0,6112.0,-1,Opposite-sex Couple,h,37.7181,80.8616,7.5798,186883,1.8245,3.7651,13.45,10.05
S252,Opposite-sex_couple_018_h,34.0,2.0,8085.0,blue,Fiction,4,3,4,1.0,1.0,1633.0,0,Opposite-sex Couple,h,22.2668,20.2962,6.2371,160728,19.7776,23.7659,10.3,11.2
S252,Opposite-sex_couple_005_h,35.0,2.0,5479.0,red,Reality,5,4,5,1.0,1.0,1288.0,-1,Opposite-sex Couple,h,71.3527,63.0692,6.9023,129078,0.0823,2.7104,13.25,11.65
S252,Opposite-sex_couple_019_v,36.0,2.0,4798.0,blue,Fiction,0,3,4,1.0,1.0,1102.0,2,Opposite-sex Couple,v,34.0967,61.2729,7.585,226298,1.7536,6.91,14.25,9.9
S252,Female_004_v,37.0,2.0,3372.0,red,Reality,1,3,4,1.0,1.0,999.0,-2,Female,v,66.2497,74.0566,6.894,218444,2.2245,-3.4638,13.1,9.4
S252,Opposite-sex_couple_012_h,38.0,2.0,9079.0,blue,Fiction,4,3,4,1.0,1.0,2120.0,1,Opposite-sex Couple,h,51.0648,48.3001,7.4745,174501,18.6779,27.0762,11.55,11.65
S252,Female_002_h,39.0,2.0,4731.0,blue,Fiction,4,5,5,1.0,1.0,2169.0,-2,Female,h,32.6608,57.3367,7.5265,428384,0.1224,13.5464,13.2,10.3
S252,Opposite-sex_couple_048_h,40.0,2.0,4398.0,blue,Fiction,1,4,5,1.0,1.0,1084.0,2,Opposite-sex Couple,h,17.0385,42.5091,6.3582,135965,6.2044,9.7063,12.5,9.1
S252,Opposite-sex_couple_014_h,41.0,2.0,4610.0,red,Reality,4,4,5,1.0,1.0,1164.0,1,Opposite-sex Couple,h,31.1618,55.9046,7.1043,170198,19.8601,20.9606,10.35,10.55
S252,Opposite-sex_couple_022_v,42.0,2.0,4210.0,red,Reality,0,3,4,1.0,1.0,1523.0,1,Opposite-sex Couple,v,46.9156,64.2866,7.61,253664,5.0465,30.4134,12.35,8.8
S252,Opposite-sex_couple_001_v,43.0,2.0,4545.0,red,Reality,1,4,4,1.0,1.0,998.0,-1,Opposite-sex Couple,v,50.9569,69.5985,7.8416,189291,4.8773,15.3441,12.75,8.8
S252,Opposite-sex_couple_033_v,44.0,2.0,4399.0,red,Reality,3,5,5,1.0,1.0,1518.0,2,Opposite-sex Couple,v,30.0265,67.3131,6.6794,240015,8.9049,4.1706,13.25,9.75
S252,Female_005_v,45.0,2.0,5075.0,blue,Fiction,0,1,3,1.0,1.0,1218.0,1,Female,v,44.8525,70.3649,7.6863,270082,11.7249,10.9722,10.8,10.25
S252,Female_017_v,46.0,2.0,4244.0,red,Reality,0,1,3,1.0,1.0,1565.0,-2,Female,v,30.0066,71.3798,7.3457,261977,11.5136,10.9459,12.5,10.45
S252,Female_023_h,47.0,2.0,6165.0,blue,Fiction,1,2,3,1.0,1.0,1499.0,-3,Female,h,20.4158,63.53,6.0347,214797,1.8632,7.0814,12.7,9.95
S252,Female_022_h,48.0,2.0,4421.0,blue,Fiction,3,4,4,1.0,1.0,2752.0,1,Female,h,56.5834,63.7769,7.3921,216160,15.4662,4.3765,11.55,11.6
S252,Female_010_h,49.0,2.0,4699.0,red,Reality,1,2,3,1.0,1.0,1335.0,-2,Female,h,19.4425,59.1991,6.5932,175241,9.5547,5.4788,12.45,8.9
S252,Opposite-sex_couple_013_h,50.0,2.0,4098.0,blue,Fiction,0,1,3,1.0,1.0,2483.0,2,Opposite-sex Couple,h,49.891,55.1144,7.6887,265017,3.8167,7.5893,9.4,10.2
S184,Female_007_v,1.0,2.0,8027.0,green,Fiction,3,4,6,1.0,1.0,782.0,-3,Female,v,41.4323,63.1534,7.4045,138365,-1.8072,2.4653,12.95,8.55
S184,Female_016_h,2.0,2.0,8255.0,red,Reality,1,1,6,1.0,1.0,1545.0,-3,Female,h,52.7456,37.7359,7.2035,198286,33.7434,20.4305,12.5,8.0
S184,Opposite-sex_couple_017_v,3.0,2.0,6349.0,red,Reality,1,1,3,1.0,1.0,2530.0,3,Opposite-sex Couple,v,23.5619,43.2164,6.988,199604,6.3891,5.0569,13.75,11.35
S184,Opposite-sex_couple_022_v,4.0,2.0,6383.0,green,Fiction,0,2,2,1.0,1.0,1131.0,-2,Opposite-sex Couple,v,46.9156,64.2866,7.61,253664,5.0465,30.4134,12.35,8.8
S184,Opposite-sex_couple_012_h,5.0,2.0,6831.0,green,Fiction,2,3,4,1.0,1.0,1860.0,-3,Opposite-sex Couple,h,51.0648,48.3001,7.4745,174501,18.6779,27.0762,11.55,11.65
S184,Female_010_h,6.0,2.0,4342.0,red,Reality,5,4,6,1.0,1.0,1252.0,1,Female,h,19.4425,59.1991,6.5932,175241,9.5547,5.4788,12.45,8.9
S184,Opposite-sex_couple_015_h,7.0,2.0,5610.0,red,Reality,2,3,3,1.0,1.0,1001.0,2,Opposite-sex Couple,h,38.3611,75.1764,7.5486,164951,6.0222,7.7653,13.95,10.4
S184,Female_017_v,8.0,2.0,4735.0,red,Reality,5,4,6,1.0,1.0,1436.0,-3,Female,v,30.0066,71.3798,7.3457,261977,11.5136,10.9459,12.5,10.45
S184,Opposite-sex_couple_008_h,9.0,2.0,13552.0,red,Reality,2,3,3,1.0,1.0,770.0,3,Opposite-sex Couple,h,16.5249,51.7477,4.6123,119546,6.2003,7.9397,13.7,10.9
S184,Female_023_h,10.0,2.0,4098.0,green,Fiction,4,4,5,1.0,1.0,1565.0,-1,Female,h,20.4158,63.53,6.0347,214797,1.8632,7.0814,12.7,9.95
S184,Opposite-sex_couple_042_h,11.0,2.0,5917.0,green,Fiction,1,0,3,1.0,1.0,1414.0,-3,Opposite-sex Couple,h,49.6856,40.9533,7.2635,179529,29.7156,31.0599,13.55,9.25
S184,Opposite-sex_couple_009_h,12.0,2.0,5273.0,red,Reality,2,3,4,1.0,1.0,1480.0,0,Opposite-sex Couple,h,37.7181,80.8616,7.5798,186883,1.8245,3.7651,13.45,10.05
S184,Female_008_v,13.0,2.0,7251.0,red,Reality,5,4,4,1.0,1.0,766.0,3,Female,v,52.8173,72.8334,7.4938,155798,1.2756,4.492,11.85,8.45
S184,Female_012_v,14.0,2.0,3817.0,green,Fiction,6,6,6,1.0,1.0,1156.0,-2,Female,v,57.6698,65.0532,7.8207,207243,4.5309,8.2501,12.75,9.3
S184,Female_013_h,15.0,2.0,6553.0,red,Reality,2,4,3,1.0,1.0,775.0,-3,Female,h,21.5101,68.6277,4.6639,137297,3.4277,3.1779,12.1,10.0
S184,Opposite-sex_couple_033_v,16.0,2.0,11783.0,red,Reality,2,2,3,1.0,1.0,1604.0,0,Opposite-sex Couple,v,30.0265,67.3131,6.6794,240015,8.9049,4.1706,13.25,9.75
S184,Female_005_v,17.0,2.0,4487.0,green,Fiction,4,5,3,1.0,1.0,1004.0,2,Female,v,44.8525,70.3649,7.6863,270082,11.7249,10.9722,10.8,10.25
S184,Opposite-sex_couple_020_h,18.0,2.0,3933.0,red,Reality,1,4,4,1.0,1.0,1999.0,2,Opposite-sex Couple,h,55.3482,59.7471,7.2655,248017,-1.1208,-1.4586,13.3,10.55
S184,Opposite-sex_couple_016_v,19.0,2.0,3691.0,green,Fiction,0,0,2,1.0,1.0,1940.0,0,Opposite-sex Couple,v,25.8676,34.2728,6.9387,193991,15.3644,22.8825,14.1,10.4
S184,Female_009_h,20.0,2.0,2654.0,green,Fiction,6,6,6,1.0,1.0,936.0,0,Female,h,43.0143,73.5278,6.6181,176869,11.341,22.514,12.0,10.25
S184,Opposite-sex_couple_001_v,21.0,2.0,4053.0,green,Fiction,2,1,3,1.0,1.0,1195.0,0,Opposite-sex Couple,v,50.9569,69.5985,7.8416,189291,4.8773,15.3441,12.75,8.8
S184,Female_021_h,22.0,2.0,2090.0,green,Fiction,6,6,6,1.0,1.0,1169.0,3,Female,h,62.5048,59.7605,7.3816,237825,8.8278,10.335,11.4,10.75
S184,Opposite-sex_couple_024_h,23.0,2.0,3794.0,green,Fiction,3,4,3,1.0,1.0,2176.0,2,Opposite-sex Couple,h,63.8212,64.8712,7.414,222144,5.895,13.5005,13.2,11.35
S184,Opposite-sex_couple_013_h,24.0,2.0,3209.0,red,Reality,0,0,5,1.0,1.0,973.0,3,Opposite-sex Couple,h,49.891,55.1144,7.6887,265017,3.8167,7.5893,9.4,10.2
S184,Female_003_v,25.0,2.0,1868.0,green,Fiction,6,6,6,1.0,1.0,1238.0,3,Female,v,71.1543,54.6216,7.4449,118707,7.0815,2.7069,12.4,9.95
S184,Female_006_v,26.0,2.0,2114.0,red,Reality,5,5,6,1.0,1.0,809.0,-3,Female,v,63.1318,63.865,7.7492,186016,2.4502,14.6292,12.2,8.95
S184,Female_001_h,27.0,2.0,3209.0,red,Reality,6,6,6,1.0,1.0,992.0,3,Female,h,58.36,49.2428,7.2143,249227,27.1818,10.7039,12.3,8.65
S184,Female_019_h,28.0,2.0,2340.0,green,Fiction,6,6,6,1.0,1.0,946.0,2,Female,h,48.6266,36.3153,7.1507,254048,23.4717,33.9492,11.5,9.15
S184,Female_011_h,29.0,2.0,5645.0,green,Fiction,3,4,5,1.0,1.0,827.0,-3,Female,h,59.689,56.5583,7.4167,142606,7.0771,8.9211,13.65,9.3
S184,Opposite-sex_couple_048_h,30.0,2.0,7663.0,red,Reality,0,3,4,1.0,1.0,1580.0,2,Opposite-sex Couple,h,17.0385,42.5091,6.3582,135965,6.2044,9.7063,12.5,9.1
S184,Female_022_h,31.0,2.0,3193.0,red,Reality,6,6,6,1.0,1.0,882.0,3,Female,h,56.5834,63.7769,7.3921,216160,15.4662,4.3765,11.55,11.6
S184,Female_025_h,32.0,2.0,3490.0,red,Reality,4,5,4,1.0,1.0,993.0,-3,Female,h,73.3617,60.3781,7.5139,216382,5.3208,0.3346,12.35,9.0
S184,Opposite-sex_couple_018_h,33.0,2.0,6571.0,red,Reality,0,0,0,1.0,1.0,1078.0,3,Opposite-sex Couple,h,22.2668,20.2962,6.2371,160728,19.7776,23.7659,10.3,11.2
S184,Opposite-sex_couple_025_h,34.0,2.0,2502.0,green,Fiction,5,5,6,1.0,1.0,983.0,3,Opposite-sex Couple,h,43.3354,49.8527,7.4546,232724,16.8426,26.7224,12.9,11.9
S184,Opposite-sex_couple_007_h,35.0,2.0,3113.0,green,Fiction,0,0,5,1.0,1.0,911.0,3,Opposite-sex Couple,h,22.6458,57.3072,6.5328,275394,12.4804,7.915,13.3,10.4
S184,Opposite-sex_couple_023_h,36.0,2.0,3197.0,red,Reality,0,0,0,1.0,1.0,1464.0,-2,Opposite-sex Couple,h,31.8043,72.0881,7.0663,190248,3.3207,4.7035,13.35,10.8
S184,Female_018_h,37.0,2.0,2320.0,red,Reality,6,6,6,1.0,1.0,953.0,-1,Female,h,73.3265,38.1936,6.9748,275330,3.457,12.5327,12.85,10.6
S184,Female_024_v,38.0,2.0,3206.0,red,Reality,5,4,6,1.0,1.0,1156.0,-2,Female,v,19.0471,55.6639,6.7429,165161,4.39,1.2286,12.95,9.35
S184,Opposite-sex_couple_011_h,39.0,2.0,3361.0,green,Fiction,0,2,3,1.0,1.0,1157.0,-2,Opposite-sex Couple,h,52.5903,78.465,7.7598,283429,6.8592,8.7999,13.65,9.1
S184,Opposite-sex_couple_002_h,40.0,2.0,3292.0,red,Reality,2,1,4,1.0,1.0,1703.0,-3,Opposite-sex Couple,h,60.763,82.3112,7.7336,244927,8.5758,13.1763,13.2,10.55
S184,Female_002_h,41.0,2.0,2971.0,red,Reality,6,5,6,1.0,1.0,1375.0,1,Female,h,32.6608,57.3367,7.5265,428384,0.1224,13.5464,13.2,10.3
S184,Opposite-sex_couple_005_h,42.0,2.0,5178.0,green,Fiction,0,3,2,1.0,1.0,2143.0,3,Opposite-sex Couple,h,71.3527,63.0692,6.9023,129078,0.0823,2.7104,13.25,11.65
S184,Female_004_v,43.0,2.0,1771.0,green,Fiction,6,6,6,1.0,1.0,1789.0,-1,Female,v,66.2497,74.0566,6.894,218444,2.2245,-3.4638,13.1,9.4
S184,Female_020_v,44.0,2.0,3887.0,red,Reality,6,6,6,1.0,1.0,905.0,-1,Female,v,50.7307,36.7955,7.0191,173444,4.4367,4.5166,12.25,10.4
S184,Opposite-sex_couple_035_h,45.0,2.0,6758.0,red,Reality,0,0,5,1.0,1.0,1050.0,-3,Opposite-sex Couple,h,35.914,62.0043,7.6422,417587,5.8165,15.5562,13.3,9.2
S184,Female_014_v,46.0,2.0,1929.0,green,Fiction,6,6,6,1.0,1.0,1011.0,-2,Female,v,63.681,76.0052,7.242,187483,5.436,12.6621,12.7,9.25
S184,Opposite-sex_couple_019_v,47.0,2.0,3008.0,green,Fiction,0,0,6,1.0,1.0,1052.0,-1,Opposite-sex Couple,v,34.0967,61.2729,7.585,226298,1.7536,6.91,14.25,9.9
S184,Opposite-sex_couple_047_v,48.0,2.0,4219.0,green,Fiction,0,0,2,1.0,1.0,870.0,-2,Opposite-sex Couple,v,45.5275,63.8914,7.6091,248159,4.3116,8.5673,13.05,9.5
S184,Opposite-sex_couple_014_h,49.0,2.0,4720.0,red,Reality,1,2,4,1.0,1.0,2152.0,3,Opposite-sex Couple,h,31.1618,55.9046,7.1043,170198,19.8601,20.9606,10.35,10.55
S184,Female_015_v,50.0,2.0,3946.0,green,Fiction,2,5,5,1.0,1.0,984.0,-3,Female,v,65.2389,53.402,7.5418,171124,8.0169,14.7847,13.7,9.6
S189,Opposite-sex_couple_047_v,1.0,2.0,14302.0,blue,Reality,1,4,4,1.0,1.0,2454.0,-1,Opposite-sex Couple,v,45.5275,63.8914,7.6091,248159,4.3116,8.5673,13.05,9.5
S189,Opposite-sex_couple_005_h,2.0,2.0,13066.0,green,Fiction,4,5,4,1.0,1.0,1251.0,3,Opposite-sex Couple,h,71.3527,63.0692,6.9023,129078,0.0823,2.7104,13.25,11.65
S189,Male_016_v,3.0,2.0,19499.0,green,Fiction,1,3,3,1.0,1.0,1617.0,0,Male,v,50.2338,45.7527,7.4858,216444,12.4281,14.1233,9.35,9.05
S189,Male_003_v,4.0,2.0,19163.0,blue,Reality,2,2,2,1.0,1.0,2619.0,-2,Male,v,46.1739,49.4077,7.4926,228056,3.5967,7.3901,10.45,8.65
S189,Opposite-sex_couple_008_h,5.0,2.0,13494.0,blue,Reality,4,5,5,1.0,1.0,1600.0,3,Opposite-sex Couple,h,16.5249,51.7477,4.6123,119546,6.2003,7.9397,13.7,10.9
S189,Male_008_v,6.0,2.0,11823.0,green,Fiction,5,6,5,1.0,1.0,1175.0,3,Male,v,49.8422,61.1046,7.609,207491,14.1516,16.1108,9.15,9.15
S189,Opposite-sex_couple_023_h,7.0,2.0,6793.0,blue,Reality,6,5,6,1.0,1.0,3283.0,0,Opposite-sex Couple,h,31.8043,72.0881,7.0663,190248,3.3207,4.7035,13.35,10.8
S189,Opposite-sex_couple_017_v,8.0,2.0,5583.0,blue,Reality,2,3,3,1.0,1.0,3175.0,1,Opposite-sex Couple,v,23.5619,43.2164,6.988,199604,6.3891,5.0569,13.75,11.35
S189,Opposite-sex_couple_001_v,9.0,2.0,8604.0,green,Fiction,1,2,2,1.0,1.0,1456.0,-1,Opposite-sex Couple,v,50.9569,69.5985,7.8416,189291,4.8773,15.3441,12.75,8.8
S189,Opposite-sex_couple_042_h,10.0,2.0,9921.0,blue,Reality,0,2,1,1.0,1.0,1451.0,-3,Opposite-sex Couple,h,49.6856,40.9533,7.2635,179529,29.7156,31.0599,13.55,9.25
S189,Male_006_v,11.0,2.0,14246.0,blue,Reality,1,2,3,1.0,1.0,2198.0,2,Male,v,26.1872,40.1914,7.0614,206880,7.5483,10.2363,7.4,9.65
S189,Male_025_v,12.0,2.0,10950.0,blue,Reality,0,3,4,1.0,1.0,4723.0,2,Male,v,29.0652,60.357,6.8769,267633,2.7805,-0.966,7.95,7.2
S189,Male_004_v,13.0,2.0,10111.0,blue,Reality,3,4,5,1.0,1.0,2655.0,-2,Male,v,31.1509,68.2319,7.0933,210323,-0.2366,7.0839,11.35,7.55
S189,Male_020_v,14.0,2.0,8726.0,green,Fiction,3,4,4,1.0,1.0,1628.0,-1,Male,v,76.8132,61.7412,7.1453,157062,4.0439,6.6188,10.2,8.05
S189,Opposite-sex_couple_013_h,15.0,2.0,13924.0,green,Fiction,1,1,1,1.0,1.0,2282.0,2,Opposite-sex Couple,h,49.891,55.1144,7.6887,265017,3.8167,7.5893,9.4,10.2
S189,Opposite-sex_couple_048_h,16.0,2.0,8310.0,blue,Reality,0,1,1,1.0,1.0,2541.0,3,Opposite-sex Couple,h,17.0385,42.5091,6.3582,135965,6.2044,9.7063,12.5,9.1
S189,Male_001_v,17.0,2.0,7117.0,blue,Reality,0,0,0,1.0,1.0,3267.0,-1,Male,v,60.0397,72.0716,7.7395,265152,4.5447,6.449,9.95,8.25
S189,Opposite-sex_couple_024_h,18.0,2.0,8463.0,blue,Reality,4,5,5,1.0,1.0,1374.0,3,Opposite-sex Couple,h,63.8212,64.8712,7.414,222144,5.895,13.5005,13.2,11.35
S189,Male_023_v,19.0,2.0,8368.0,green,Fiction,1,4,5,1.0,1.0,2054.0,3,Male,v,51.0533,59.4542,7.7168,201176,12.5798,16.3443,11.65,8.15
S189,Male_007_h,20.0,2.0,7316.0,blue,Reality,0,2,2,1.0,1.0,3899.0,1,Male,h,50.1922,54.4775,7.6965,469938,3.1066,14.9059,8.25,8.15
S189,Opposite-sex_couple_018_h,21.0,2.0,6710.0,green,Fiction,2,4,4,1.0,1.0,1830.0,3,Opposite-sex Couple,h,22.2668,20.2962,6.2371,160728,19.7776,23.7659,10.3,11.2
S189,Male_021_h,22.0,2.0,18932.0,green,Fiction,0,3,2,1.0,1.0,2537.0,2,Male,h,57.763,37.3776,7.1043,326961,2.6508,1.566,9.15,7.75
S189,Male_019_h,23.0,2.0,3663.0,green,Fiction,0,1,1,1.0,1.0,1686.0,0,Male,h,19.1464,33.4787,6.5824,150728,14.2369,16.1964,9.15,6.85
S189,Male_002_v,24.0,2.0,7848.0,green,Fiction,1,3,2,1.0,1.0,1694.0,1,Male,v,42.743,65.8985,7.7155,221793,11.6582,-3.6073,10.0,7.5
S189,Male_015_v,25.0,2.0,12493.0,blue,Reality,1,3,4,1.0,1.0,1379.0,-1,Male,v,20.0917,76.4888,3.8868,167601,1.4845,8.8924,11.4,6.8
S189,Opposite-sex_couple_020_h,26.0,2.0,6266.0,green,Fiction,3,4,5,1.0,1.0,2497.0,-2,Opposite-sex Couple,h,55.3482,59.7471,7.2655,248017,-1.1208,-1.4586,13.3,10.55
S189,Male_017_v,27.0,2.0,5713.0,blue,Reality,1,2,2,1.0,1.0,2157.0,-2,Male,v,31.538,56.3546,7.2051,276400,5.2385,7.6499,8.25,8.7
S189,Opposite-sex_couple_016_v,28.0,2.0,7093.0,green,Fiction,1,3,3,1.0,1.0,2565.0,0,Opposite-sex Couple,v,25.8676,34.2728,6.9387,193991,15.3644,22.8825,14.1,10.4
S189,Male_009_v,29.0,2.0,9837.0,blue,Reality,2,4,5,1.0,1.0,3671.0,2,Male,v,43.2111,60.8704,7.489,271374,13.4711,15.6762,10.6,7.7
S189,Opposite-sex_couple_033_v,30.0,2.0,10415.0,green,Fiction,2,3,3,1.0,1.0,1389.0,1,Opposite-sex Couple,v,30.0265,67.3131,6.6794,240015,8.9049,4.1706,13.25,9.75
S189,Opposite-sex_couple_007_h,31.0,2.0,9345.0,blue,Reality,1,2,3,1.0,1.0,1550.0,2,Opposite-sex Couple,h,22.6458,57.3072,6.5328,275394,12.4804,7.915,13.3,10.4
S189,Male_022_v,32.0,2.0,6795.0,green,Fiction,3,5,5,1.0,1.0,3141.0,3,Male,v,43.1253,52.5585,7.6091,257785,2.6258,12.346,7.45,10.6
S189,Opposite-sex_couple_014_h,33.0,2.0,9570.0,blue,Reality,5,6,5,1.0,1.0,1770.0,3,Opposite-sex Couple,h,31.1618,55.9046,7.1043,170198,19.8601,20.9606,10.35,10.55
S189,Male_012_h,34.0,2.0,5873.0,blue,Reality,3,5,6,1.0,1.0,1206.0,3,Male,h,76.3947,43.9723,7.2393,331233,4.1326,8.2885,8.8,6.7
S189,Opposite-sex_couple_002_h,35.0,2.0,8215.0,green,Fiction,2,3,3,1.0,1.0,2486.0,0,Opposite-sex Couple,h,60.763,82.3112,7.7336,244927,8.5758,13.1763,13.2,10.55
S189,Opposite-sex_couple_009_h,36.0,2.0,7445.0,green,Fiction,3,4,3,1.0,1.0,2731.0,0,Opposite-sex Couple,h,37.7181,80.8616,7.5798,186883,1.8245,3.7651,13.45,10.05
S189,Male_024_h,37.0,2.0,8286.0,blue,Reality,2,4,5,1.0,1.0,2170.0,-3,Male,h,35.3457,44.1672,7.3268,201056,11.8279,13.8626,11.1,7.75
S189,Male_013_v,38.0,2.0,10842.0,blue,Reality,2,4,4,1.0,1.0,1739.0,1,Male,v,44.0686,86.7349,7.4514,293448,11.5375,24.8859,9.95,9.05
S189,Opposite-sex_couple_035_h,39.0,2.0,7362.0,blue,Reality,0,2,3,1.0,1.0,2360.0,-2,Opposite-sex Couple,h,35.914,62.0043,7.6422,417587,5.8165,15.5562,13.3,9.2
S189,Opposite-sex_couple_012_h,40.0,2.0,6774.0,blue,Reality,5,6,6,1.0,1.0,1383.0,3,Opposite-sex Couple,h,51.0648,48.3001,7.4745,174501,18.6779,27.0762,11.55,11.65
S189,Male_014_v,41.0,2.0,15672.0,green,Fiction,4,5,6,1.0,1.0,1962.0,3,Male,v,73.0604,48.9227,7.2601,151861,3.9097,2.0474,9.65,8.95
S189,Opposite-sex_couple_019_v,42.0,2.0,10485.0,blue,Reality,0,4,5,1.0,1.0,2461.0,0,Opposite-sex Couple,v,34.0967,61.2729,7.585,226298,1.7536,6.91,14.25,9.9
S189,Opposite-sex_couple_011_h,43.0,2.0,15874.0,green,Fiction,0,4,5,1.0,1.0,2693.0,0,Opposite-sex Couple,h,52.5903,78.465,7.7598,283429,6.8592,8.7999,13.65,9.1
S189,Male_010_v,44.0,2.0,5751.0,green,Fiction,2,4,4,1.0,1.0,1466.0,2,Male,v,59.9546,67.3991,7.2976,160848,6.5991,11.7406,9.2,7.55
S189,Opposite-sex_couple_022_v,45.0,2.0,10815.0,green,Fiction,1,3,4,1.0,1.0,1914.0,1,Opposite-sex Couple,v,46.9156,64.2866,7.61,253664,5.0465,30.4134,12.35,8.8
S189,Opposite-sex_couple_015_h,46.0,2.0,9326.0,blue,Reality,1,3,4,1.0,1.0,2739.0,2,Opposite-sex Couple,h,38.3611,75.1764,7.5486,164951,6.0222,7.7653,13.95,10.4
S189,Opposite-sex_couple_025_h,47.0,2.0,7988.0,green,Fiction,4,5,6,1.0,1.0,3383.0,3,Opposite-sex Couple,h,43.3354,49.8527,7.4546,232724,16.8426,26.7224,12.9,11.9
S189,Male_005_v,48.0,2.0,13911.0,blue,Reality,0,2,2,1.0,1.0,1745.0,-3,Male,v,19.09,43.8873,6.7516,170084,11.4089,17.2027,8.7,9.15
S189,Male_011_v,49.0,2.0,7063.0,green,Fiction,3,6,6,1.0,1.0,1293.0,-1,Male,v,40.2007,66.7949,7.44,265717,8.1808,11.1864,10.0,7.65
S189,Male_018_v,50.0,2.0,7745.0,green,Fiction,0,5,6,1.0,1.0,4092.0,1,Male,v,57.09,71.0229,7.2597,175978,7.6306,11.6477,9.7,7.1
S130,Male_012_h,1.0,2.0,9126.0,green,Fiction,1,0,2,1.0,1.0,1149.0,2,Male,h,76.3947,43.9723,7.2393,331233,4.1326,8.2885,8.8,6.7
S130,Male_couple_010_h,2.0,2.0,8313.0,green,Fiction,1,2,5,1.0,1.0,2263.0,3,Male Couple,h,53.8929,55.7967,7.6787,265521,6.0205,3.7748,7.45,8.6
S130,Male_couple_012_v,3.0,2.0,6252.0,blue,Reality,1,3,4,1.0,1.0,1734.0,2,Male Couple,v,51.6895,55.8982,7.7737,356017,10.2702,12.2373,9.1,7.55
S130,Male_couple_019_h,4.0,2.0,5157.0,blue,Reality,0,0,0,1.0,1.0,2694.0,1,Male Couple,h,47.8506,73.8637,7.513,211380,8.9456,4.4504,6.7,10.2
S130,Male_couple_003_v,5.0,2.0,4724.0,green,Fiction,0,2,6,1.0,1.0,1783.0,-2,Male Couple,v,66.5166,52.8548,7.4467,171950,2.7684,-4.2231,9.0,8.05
S130,Male_004_v,6.0,2.0,7359.0,green,Fiction,3,2,3,1.0,1.0,1604.0,-1,Male,v,31.1509,68.2319,7.0933,210323,-0.2366,7.0839,11.35,7.55
S130,Male_003_v,7.0,2.0,6389.0,green,Fiction,4,4,4,1.0,1.0,1536.0,-3,Male,v,46.1739,49.4077,7.4926,228056,3.5967,7.3901,10.45,8.65
S130,Male_couple_021_h,8.0,2.0,5595.0,green,Fiction,1,2,4,1.0,1.0,1301.0,-1,Male Couple,h,44.8661,51.09,7.5663,196656,1.8777,-6.5466,9.85,8.05
S130,Male_021_h,9.0,2.0,6533.0,green,Fiction,0,2,3,1.0,1.0,1070.0,2,Male,h,57.763,37.3776,7.1043,326961,2.6508,1.566,9.15,7.75
S130,Male_007_h,10.0,2.0,4946.0,green,Fiction,0,0,1,1.0,1.0,1894.0,2,Male,h,50.1922,54.4775,7.6965,469938,3.1066,14.9059,8.25,8.15
S130,Male_couple_016_h,11.0,2.0,5371.0,blue,Reality,2,2,3,1.0,1.0,1499.0,-3,Male Couple,h,43.5508,61.8847,7.7563,199792,6.7025,9.6391,7.95,8.35
S130,Male_couple_009_v,12.0,2.0,5926.0,green,Fiction,3,3,3,1.0,1.0,2107.0,3,Male Couple,v,46.9517,55.2816,7.6829,260182,17.3454,23.3053,6.05,10.2
S130,Male_020_v,13.0,2.0,8503.0,blue,Reality,0,1,2,1.0,1.0,1446.0,-3,Male,v,76.8132,61.7412,7.1453,157062,4.0439,6.6188,10.2,8.05
S130,Male_couple_015_v,14.0,2.0,6814.0,blue,Reality,1,2,2,1.0,1.0,1087.0,3,Male Couple,v,46.9837,48.3338,7.3437,111341,22.1316,53.6395,7.35,11.55
S130,Male_008_v,15.0,2.0,7034.0,blue,Reality,1,3,3,1.0,1.0,1204.0,-2,Male,v,49.8422,61.1046,7.609,207491,14.1516,16.1108,9.15,9.15
S130,Male_019_h,16.0,2.0,2828.0,green,Fiction,0,0,0,1.0,1.0,1326.0,3,Male,h,19.1464,33.4787,6.5824,150728,14.2369,16.1964,9.15,6.85
S130,Male_couple_022_v,17.0,2.0,4578.0,green,Fiction,0,0,1,1.0,1.0,1035.0,3,Male Couple,v,26.7492,34.2341,6.8234,140757,-8.3328,-6.3093,8.0,10.1
S130,Male_018_v,18.0,2.0,5914.0,blue,Reality,0,0,2,1.0,1.0,1249.0,-3,Male,v,57.09,71.0229,7.2597,175978,7.6306,11.6477,9.7,7.1
S130,Male_022_v,19.0,2.0,7857.0,blue,Reality,2,2,2,1.0,1.0,1599.0,1,Male,v,43.1253,52.5585,7.6091,257785,2.6258,12.346,7.45,10.6
S130,Male_couple_013_h,20.0,2.0,6262.0,blue,Reality,0,3,6,1.0,1.0,2883.0,2,Male Couple,h,55.2798,73.0222,7.4902,231525,-2.2027,4.6598,10.65,7.65
S130,Male_couple_018_h,21.0,2.0,5957.0,blue,Reality,0,1,6,1.0,1.0,954.0,2,Male Couple,h,41.753,39.8044,7.2262,528281,-9.6718,19.8907,10.25,6.75
S130,Male_couple_011_v,22.0,2.0,5252.0,blue,Reality,0,0,2,1.0,1.0,1633.0,1,Male Couple,v,26.2942,80.2244,6.72,166041,6.009,10.2511,8.1,8.5
S130,Male_015_v,23.0,2.0,4977.0,blue,Reality,0,1,1,1.0,1.0,1119.0,2,Male,v,20.0917,76.4888,3.8868,167601,1.4845,8.8924,11.4,6.8
S130,Male_014_v,24.0,2.0,6922.0,blue,Reality,0,2,2,1.0,1.0,1172.0,3,Male,v,73.0604,48.9227,7.2601,151861,3.9097,2.0474,9.65,8.95
S130,Male_couple_020_h,25.0,2.0,8953.0,green,Fiction,3,3,3,1.0,1.0,1106.0,3,Male Couple,h,42.6955,61.1341,7.5227,233335,10.24,4.9908,5.25,12.45
S130,Male_016_v,26.0,2.0,6018.0,blue,Reality,1,2,2,1.0,1.0,2087.0,2,Male,v,50.2338,45.7527,7.4858,216444,12.4281,14.1233,9.35,9.05
S130,Male_couple_014_h,27.0,2.0,5349.0,green,Fiction,2,2,2,1.0,1.0,973.0,3,Male Couple,h,44.8562,74.69,7.445,288191,-0.1825,1.145,6.75,10.75
S130,Male_couple_044_h,28.0,2.0,5132.0,blue,Reality,1,2,3,1.0,1.0,1060.0,3,Male Couple,h,20.6794,49.1775,6.941,158041,4.4175,2.1516,8.2,8.45
S130,Male_couple_029_h,29.0,2.0,4803.0,green,Fiction,1,2,3,1.0,1.0,826.0,2,Male Couple,h,19.0595,68.3009,5.8536,184235,5.7954,6.5674,8.25,7.35
S130,Male_couple_023_v,30.0,2.0,6208.0,blue,Reality,1,2,2,1.0,1.0,1706.0,-3,Male Couple,v,20.6063,46.5517,6.4646,283516,14.5116,11.3962,6.3,11.9
S130,Male_006_v,31.0,2.0,4710.0,blue,Reality,1,2,2,1.0,1.0,1052.0,2,Male,v,26.1872,40.1914,7.0614,206880,7.5483,10.2363,7.4,9.65
S130,Male_010_v,32.0,2.0,5607.0,green,Fiction,1,2,2,1.0,1.0,1086.0,-1,Male,v,59.9546,67.3991,7.2976,160848,6.5991,11.7406,9.2,7.55
S130,Male_013_v,33.0,2.0,4875.0,green,Fiction,0,0,0,1.0,1.0,1719.0,2,Male,v,44.0686,86.7349,7.4514,293448,11.5375,24.8859,9.95,9.05
S130,Male_couple_033_v,34.0,2.0,3371.0,green,Fiction,0,0,0,1.0,1.0,1002.0,1,Male Couple,v,51.1408,61.1756,7.8507,157560,16.5554,25.2587,9.45,7.9
S130,Male_001_v,35.0,2.0,6040.0,green,Fiction,1,2,2,1.0,1.0,1583.0,2,Male,v,60.0397,72.0716,7.7395,265152,4.5447,6.449,9.95,8.25
S130,Male_011_v,36.0,2.0,3991.0,blue,Reality,0,0,0,1.0,1.0,1711.0,-1,Male,v,40.2007,66.7949,7.44,265717,8.1808,11.1864,10.0,7.65
S130,Male_couple_025_v,37.0,2.0,5292.0,green,Fiction,1,2,2,1.0,1.0,1031.0,2,Male Couple,v,27.8636,55.1917,7.2299,142199,12.7703,19.4808,7.2,10.15
S130,Male_005_v,38.0,2.0,4610.0,blue,Reality,0,0,0,1.0,1.0,1140.0,-3,Male,v,19.09,43.8873,6.7516,170084,11.4089,17.2027,8.7,9.15
S130,Male_025_v,39.0,2.0,2535.0,green,Fiction,0,0,0,1.0,1.0,1175.0,1,Male,v,29.0652,60.357,6.8769,267633,2.7805,-0.966,7.95,7.2
S130,Male_024_h,40.0,2.0,3828.0,blue,Reality,0,0,0,1.0,1.0,1090.0,-2,Male,h,35.3457,44.1672,7.3268,201056,11.8279,13.8626,11.1,7.75
S130,Male_couple_047_h,41.0,2.0,4678.0,blue,Reality,0,1,1,1.0,1.0,1259.0,-2,Male Couple,h,38.6953,67.1104,7.619,186038,6.7433,8.1226,8.6,7.65
S130,Male_002_v,42.0,2.0,3342.0,blue,Reality,0,0,0,1.0,1.0,4047.0,1,Male,v,42.743,65.8985,7.7155,221793,11.6582,-3.6073,10.0,7.5
S130,Male_couple_002_h,43.0,2.0,3953.0,blue,Reality,2,3,3,1.0,1.0,2268.0,2,Male Couple,h,37.4875,38.3564,7.179,205911,-0.2515,6.5637,8.3,8.15
S130,Male_couple_037_v,44.0,2.0,2546.0,blue,Reality,0,0,0,1.0,1.0,7716.0,-1,Male Couple,v,43.2802,76.1542,7.6745,265975,5.2379,2.6962,8.85,6.75
S130,Male_couple_024_h,45.0,2.0,5884.0,green,Fiction,0,1,1,1.0,1.0,1460.0,1,Male Couple,h,41.6405,66.8073,7.6836,247201,2.9857,6.8673,11.0,9.45
S130,Male_017_v,46.0,2.0,7324.0,green,Fiction,3,4,4,1.0,1.0,1577.0,-3,Male,v,31.538,56.3546,7.2051,276400,5.2385,7.6499,8.25,8.7
S130,Male_couple_006_h,47.0,2.0,4808.0,green,Fiction,0,1,2,1.0,1.0,1419.0,-3,Male Couple,h,58.501,64.1905,7.5899,343161,3.4827,6.3648,10.25,6.9
S130,Male_009_v,48.0,2.0,3845.0,green,Fiction,2,3,3,1.0,1.0,1281.0,-2,Male,v,43.2111,60.8704,7.489,271374,13.4711,15.6762,10.6,7.7
S130,Male_023_v,49.0,2.0,8205.0,blue,Reality,1,1,1,1.0,1.0,1113.0,-1,Male,v,51.0533,59.4542,7.7168,201176,12.5798,16.3443,11.65,8.15
S130,Male_couple_007_v,50.0,2.0,3299.0,blue,Reality,0,0,1,1.0,1.0,1895.0,-2,Male Couple,v,67.2865,34.7375,6.7861,179516,-0.1492,-1.6924,9.45,8.45
S163,Female_014_v,1.0,2.0,7480.0,red,Reality,4,5,3,1.0,1.0,1487.0,2,Female,v,63.681,76.0052,7.242,187483,5.436,12.6621,12.7,9.25
S163,Female_011_h,2.0,2.0,7363.0,green,Fiction,3,3,4,1.0,1.0,2311.0,-3,Female,h,59.689,56.5583,7.4167,142606,7.0771,8.9211,13.65,9.3
S163,Opposite-sex_couple_018_h,3.0,2.0,9433.0,green,Fiction,4,3,3,1.0,1.0,1645.0,2,Opposite-sex Couple,h,22.2668,20.2962,6.2371,160728,19.7776,23.7659,10.3,11.2
S163,Opposite-sex_couple_048_h,4.0,2.0,7799.0,green,Fiction,1,2,2,1.0,1.0,1271.0,2,Opposite-sex Couple,h,17.0385,42.5091,6.3582,135965,6.2044,9.7063,12.5,9.1
S163,Opposite-sex_couple_020_h,5.0,2.0,5564.0,green,Fiction,4,5,3,1.0,1.0,1353.0,1,Opposite-sex Couple,h,55.3482,59.7471,7.2655,248017,-1.1208,-1.4586,13.3,10.55
S163,Female_012_v,6.0,2.0,4424.0,green,Fiction,3,2,3,1.0,1.0,1628.0,-1,Female,v,57.6698,65.0532,7.8207,207243,4.5309,8.2501,12.75,9.3
S163,Female_013_h,7.0,2.0,6946.0,green,Fiction,2,2,4,1.0,1.0,1474.0,-2,Female,h,21.5101,68.6277,4.6639,137297,3.4277,3.1779,12.1,10.0
S163,Female_022_h,8.0,2.0,7530.0,red,Reality,5,4,5,1.0,1.0,1510.0,2,Female,h,56.5834,63.7769,7.3921,216160,15.4662,4.3765,11.55,11.6
S163,Female_010_h,9.0,2.0,5753.0,red,Reality,3,3,5,1.0,1.0,1404.0,1,Female,h,19.4425,59.1991,6.5932,175241,9.5547,5.4788,12.45,8.9
S163,Female_008_v,10.0,2.0,6976.0,red,Reality,2,3,5,1.0,1.0,1918.0,-2,Female,v,52.8173,72.8334,7.4938,155798,1.2756,4.492,11.85,8.45
S163,Female_019_h,11.0,2.0,4987.0,green,Fiction,3,2,3,1.0,1.0,1319.0,-2,Female,h,48.6266,36.3153,7.1507,254048,23.4717,33.9492,11.5,9.15
S163,Female_007_v,12.0,2.0,7503.0,red,Reality,1,1,2,1.0,1.0,1626.0,2,Female,v,41.4323,63.1534,7.4045,138365,-1.8072,2.4653,12.95,8.55
S163,Female_015_v,13.0,2.0,6926.0,red,Reality,0,2,2,1.0,1.0,1232.0,-2,Female,v,65.2389,53.402,7.5418,171124,8.0169,14.7847,13.7,9.6
S163,Opposite-sex_couple_042_h,14.0,2.0,5738.0,red,Reality,0,1,3,1.0,1.0,2884.0,1,Opposite-sex Couple,h,49.6856,40.9533,7.2635,179529,29.7156,31.0599,13.55,9.25
S163,Opposite-sex_couple_009_h,15.0,2.0,4908.0,red,Reality,4,3,4,1.0,1.0,2108.0,1,Opposite-sex Couple,h,37.7181,80.8616,7.5798,186883,1.8245,3.7651,13.45,10.05
S163,Opposite-sex_couple_017_v,16.0,2.0,5560.0,green,Fiction,2,3,2,1.0,1.0,2394.0,-1,Opposite-sex Couple,v,23.5619,43.2164,6.988,199604,6.3891,5.0569,13.75,11.35
S163,Female_005_v,17.0,2.0,4993.0,red,Reality,4,3,3,1.0,1.0,1578.0,1,Female,v,44.8525,70.3649,7.6863,270082,11.7249,10.9722,10.8,10.25
S163,Female_001_h,18.0,2.0,6318.0,green,Fiction,0,1,3,1.0,1.0,1547.0,-2,Female,h,58.36,49.2428,7.2143,249227,27.1818,10.7039,12.3,8.65
S163,Female_021_h,19.0,2.0,7160.0,red,Reality,5,4,4,1.0,1.0,1472.0,-1,Female,h,62.5048,59.7605,7.3816,237825,8.8278,10.335,11.4,10.75
S163,Opposite-sex_couple_007_h,20.0,2.0,5009.0,red,Reality,0,3,4,1.0,1.0,1544.0,2,Opposite-sex Couple,h,22.6458,57.3072,6.5328,275394,12.4804,7.915,13.3,10.4
S163,Female_003_v,21.0,2.0,4598.0,red,Reality,5,5,5,1.0,1.0,1579.0,2,Female,v,71.1543,54.6216,7.4449,118707,7.0815,2.7069,12.4,9.95
S163,Opposite-sex_couple_005_h,22.0,2.0,5958.0,green,Fiction,3,3,4,1.0,1.0,1525.0,-2,Opposite-sex Couple,h,71.3527,63.0692,6.9023,129078,0.0823,2.7104,13.25,11.65
S163,Opposite-sex_couple_002_h,23.0,2.0,5828.0,green,Fiction,2,3,4,1.0,1.0,1887.0,-1,Opposite-sex Couple,h,60.763,82.3112,7.7336,244927,8.5758,13.1763,13.2,10.55
S163,Opposite-sex_couple_001_v,24.0,2.0,8580.0,red,Reality,0,4,4,1.0,1.0,2313.0,-2,Opposite-sex Couple,v,50.9569,69.5985,7.8416,189291,4.8773,15.3441,12.75,8.8
S163,Female_009_h,25.0,2.0,5053.0,green,Fiction,4,4,5,1.0,1.0,1212.0,-2,Female,h,43.0143,73.5278,6.6181,176869,11.341,22.514,12.0,10.25
S163,Opposite-sex_couple_025_h,26.0,2.0,5214.0,green,Fiction,5,5,5,1.0,1.0,1477.0,2,Opposite-sex Couple,h,43.3354,49.8527,7.4546,232724,16.8426,26.7224,12.9,11.9
S163,Opposite-sex_couple_024_h,27.0,2.0,6189.0,red,Reality,4,5,5,1.0,1.0,1786.0,-2,Opposite-sex Couple,h,63.8212,64.8712,7.414,222144,5.895,13.5005,13.2,11.35
S163,Female_016_h,28.0,2.0,5684.0,red,Reality,1,3,5,1.0,1.0,1247.0,-3,Female,h,52.7456,37.7359,7.2035,198286,33.7434,20.4305,12.5,8.0
S163,Female_024_v,29.0,2.0,4339.0,green,Fiction,3,4,3,1.0,1.0,2272.0,-2,Female,v,19.0471,55.6639,6.7429,165161,4.39,1.2286,12.95,9.35
S163,Female_025_h,30.0,2.0,4230.0,red,Reality,2,5,5,1.0,1.0,1547.0,2,Female,h,73.3617,60.3781,7.5139,216382,5.3208,0.3346,12.35,9.0
S163,Female_002_h,31.0,2.0,4412.0,green,Fiction,4,4,5,1.0,1.0,3487.0,-2,Female,h,32.6608,57.3367,7.5265,428384,0.1224,13.5464,13.2,10.3
S163,Opposite-sex_couple_012_h,32.0,2.0,6175.0,red,Reality,4,5,4,1.0,1.0,1991.0,3,Opposite-sex Couple,h,51.0648,48.3001,7.4745,174501,18.6779,27.0762,11.55,11.65
S163,Female_018_h,33.0,2.0,3604.0,green,Fiction,4,5,5,1.0,1.0,1511.0,-2,Female,h,73.3265,38.1936,6.9748,275330,3.457,12.5327,12.85,10.6
S163,Opposite-sex_couple_008_h,34.0,2.0,6064.0,red,Reality,3,4,5,1.0,1.0,1457.0,2,Opposite-sex Couple,h,16.5249,51.7477,4.6123,119546,6.2003,7.9397,13.7,10.9
S163,Opposite-sex_couple_016_v,35.0,2.0,7291.0,green,Fiction,0,2,2,1.0,1.0,1593.0,-2,Opposite-sex Couple,v,25.8676,34.2728,6.9387,193991,15.3644,22.8825,14.1,10.4
S163,Female_017_v,36.0,2.0,3731.0,green,Fiction,3,4,4,1.0,1.0,1721.0,-2,Female,v,30.0066,71.3798,7.3457,261977,11.5136,10.9459,12.5,10.45
S163,Opposite-sex_couple_035_h,37.0,2.0,5593.0,red,Reality,0,3,5,1.0,1.0,3527.0,-1,Opposite-sex Couple,h,35.914,62.0043,7.6422,417587,5.8165,15.5562,13.3,9.2
S163,Opposite-sex_couple_011_h,38.0,2.0,5666.0,red,Reality,1,4,6,1.0,1.0,1517.0,1,Opposite-sex Couple,h,52.5903,78.465,7.7598,283429,6.8592,8.7999,13.65,9.1
S163,Female_023_h,39.0,2.0,4408.0,red,Reality,3,3,4,1.0,1.0,1471.0,-2,Female,h,20.4158,63.53,6.0347,214797,1.8632,7.0814,12.7,9.95
S163,Female_004_v,40.0,2.0,3859.0,green,Fiction,1,3,3,1.0,1.0,1441.0,2,Female,v,66.2497,74.0566,6.894,218444,2.2245,-3.4638,13.1,9.4
S163,Opposite-sex_couple_022_v,41.0,2.0,4071.0,green,Fiction,0,2,3,1.0,1.0,2466.0,-1,Opposite-sex Couple,v,46.9156,64.2866,7.61,253664,5.0465,30.4134,12.35,8.8
S163,Female_006_v,42.0,2.0,4099.0,green,Fiction,2,3,5,1.0,1.0,2971.0,-2,Female,v,63.1318,63.865,7.7492,186016,2.4502,14.6292,12.2,8.95
S163,Opposite-sex_couple_013_h,43.0,2.0,6842.0,red,Reality,0,3,3,1.0,1.0,2102.0,3,Opposite-sex Couple,h,49.891,55.1144,7.6887,265017,3.8167,7.5893,9.4,10.2
S163,Opposite-sex_couple_033_v,44.0,2.0,4415.0,green,Fiction,2,4,4,1.0,1.0,1528.0,1,Opposite-sex Couple,v,30.0265,67.3131,6.6794,240015,8.9049,4.1706,13.25,9.75
S163,Opposite-sex_couple_023_h,45.0,2.0,4526.0,green,Fiction,1,2,2,1.0,1.0,1786.0,-3,Opposite-sex Couple,h,31.8043,72.0881,7.0663,190248,3.3207,4.7035,13.35,10.8
S163,Opposite-sex_couple_014_h,46.0,2.0,4963.0,red,Reality,4,4,5,1.0,1.0,1935.0,-2,Opposite-sex Couple,h,31.1618,55.9046,7.1043,170198,19.8601,20.9606,10.35,10.55
S163,Opposite-sex_couple_047_v,47.0,2.0,15028.0,green,Fiction,0,3,4,1.0,1.0,1481.0,1,Opposite-sex Couple,v,45.5275,63.8914,7.6091,248159,4.3116,8.5673,13.05,9.5
S163,Female_020_v,48.0,2.0,4145.0,red,Reality,4,5,5,1.0,1.0,1627.0,2,Female,v,50.7307,36.7955,7.0191,173444,4.4367,4.5166,12.25,10.4
S163,Opposite-sex_couple_019_v,49.0,2.0,4333.0,red,Reality,0,3,5,1.0,1.0,1541.0,2,Opposite-sex Couple,v,34.0967,61.2729,7.585,226298,1.7536,6.91,14.25,9.9
S163,Opposite-sex_couple_015_h,50.0,2.0,5861.0,red,Reality,3,4,4,1.0,1.0,1350.0,1,Opposite-sex Couple,h,38.3611,75.1764,7.5486,164951,6.0222,7.7653,13.95,10.4
S092,Opposite-sex_couple_033_v,1.0,2.0,15242.0,red,Reality,0,1,3,1.0,1.0,842.0,3,Opposite-sex Couple,v,30.0265,67.3131,6.6794,240015,8.9049,4.1706,13.25,9.75
S092,Male_007_h,2.0,2.0,9073.0,blue,Fiction,0,0,1,1.0,1.0,1440.0,3,Male,h,50.1922,54.4775,7.6965,469938,3.1066,14.9059,8.25,8.15
S092,Opposite-sex_couple_018_h,3.0,2.0,18381.0,blue,Fiction,0,2,2,1.0,1.0,921.0,3,Opposite-sex Couple,h,22.2668,20.2962,6.2371,160728,19.7776,23.7659,10.3,11.2
S092,Male_018_v,4.0,2.0,4813.0,blue,Fiction,0,0,0,1.0,1.0,899.0,3,Male,v,57.09,71.0229,7.2597,175978,7.6306,11.6477,9.7,7.1
S092,Opposite-sex_couple_014_h,5.0,2.0,8245.0,red,Reality,3,3,4,1.0,1.0,964.0,3,Opposite-sex Couple,h,31.1618,55.9046,7.1043,170198,19.8601,20.9606,10.35,10.55
S092,Male_019_h,6.0,2.0,4630.0,blue,Fiction,0,0,0,1.0,1.0,960.0,3,Male,h,19.1464,33.4787,6.5824,150728,14.2369,16.1964,9.15,6.85
S092,Opposite-sex_couple_016_v,7.0,2.0,4757.0,blue,Fiction,0,0,4,1.0,1.0,1225.0,3,Opposite-sex Couple,v,25.8676,34.2728,6.9387,193991,15.3644,22.8825,14.1,10.4
S092,Male_004_v,8.0,2.0,7459.0,blue,Fiction,0,4,4,1.0,1.0,810.0,3,Male,v,31.1509,68.2319,7.0933,210323,-0.2366,7.0839,11.35,7.55
S092,Opposite-sex_couple_012_h,9.0,2.0,4383.0,red,Reality,0,0,0,1.0,1.0,1055.0,3,Opposite-sex Couple,h,51.0648,48.3001,7.4745,174501,18.6779,27.0762,11.55,11.65
S092,Male_001_v,10.0,2.0,3995.0,blue,Fiction,0,0,0,1.0,1.0,881.0,3,Male,v,60.0397,72.0716,7.7395,265152,4.5447,6.449,9.95,8.25
S092,Male_016_v,11.0,2.0,3685.0,red,Reality,0,0,0,1.0,1.0,966.0,2,Male,v,50.2338,45.7527,7.4858,216444,12.4281,14.1233,9.35,9.05
S092,Opposite-sex_couple_025_h,12.0,2.0,7697.0,blue,Fiction,4,4,4,1.0,1.0,4246.0,3,Opposite-sex Couple,h,43.3354,49.8527,7.4546,232724,16.8426,26.7224,12.9,11.9
S092,Male_015_v,13.0,2.0,5667.0,blue,Fiction,0,6,5,1.0,1.0,1193.0,3,Male,v,20.0917,76.4888,3.8868,167601,1.4845,8.8924,11.4,6.8
S092,Opposite-sex_couple_017_v,14.0,2.0,4374.0,blue,Fiction,0,0,0,1.0,1.0,782.0,3,Opposite-sex Couple,v,23.5619,43.2164,6.988,199604,6.3891,5.0569,13.75,11.35
S092,Opposite-sex_couple_022_v,15.0,2.0,4055.0,red,Reality,0,0,0,1.0,1.0,826.0,3,Opposite-sex Couple,v,46.9156,64.2866,7.61,253664,5.0465,30.4134,12.35,8.8
S092,Male_023_v,16.0,2.0,7417.0,red,Reality,0,5,5,1.0,1.0,958.0,3,Male,v,51.0533,59.4542,7.7168,201176,12.5798,16.3443,11.65,8.15
S092,Opposite-sex_couple_007_h,17.0,2.0,5248.0,blue,Fiction,0,0,3,1.0,1.0,1459.0,3,Opposite-sex Couple,h,22.6458,57.3072,6.5328,275394,12.4804,7.915,13.3,10.4
S092,Male_006_v,18.0,2.0,3744.0,red,Reality,0,0,0,1.0,1.0,765.0,3,Male,v,26.1872,40.1914,7.0614,206880,7.5483,10.2363,7.4,9.65
S092,Male_008_v,19.0,2.0,3256.0,blue,Fiction,0,0,0,1.0,1.0,815.0,3,Male,v,49.8422,61.1046,7.609,207491,14.1516,16.1108,9.15,9.15
S092,Male_012_h,20.0,2.0,3244.0,blue,Fiction,0,0,0,1.0,1.0,2247.0,3,Male,h,76.3947,43.9723,7.2393,331233,4.1326,8.2885,8.8,6.7
S092,Opposite-sex_couple_015_h,21.0,2.0,3853.0,red,Reality,0,0,0,1.0,1.0,1129.0,3,Opposite-sex Couple,h,38.3611,75.1764,7.5486,164951,6.0222,7.7653,13.95,10.4
S092,Male_002_v,22.0,2.0,5921.0,blue,Fiction,0,1,1,1.0,1.0,817.0,3,Male,v,42.743,65.8985,7.7155,221793,11.6582,-3.6073,10.0,7.5
S092,Opposite-sex_couple_023_h,23.0,2.0,3906.0,red,Reality,0,0,0,1.0,1.0,858.0,3,Opposite-sex Couple,h,31.8043,72.0881,7.0663,190248,3.3207,4.7035,13.35,10.8
S092,Opposite-sex_couple_011_h,24.0,2.0,4361.0,red,Reality,0,2,1,1.0,1.0,967.0,3,Opposite-sex Couple,h,52.5903,78.465,7.7598,283429,6.8592,8.7999,13.65,9.1
S092,Opposite-sex_couple_005_h,25.0,2.0,5155.0,blue,Fiction,3,3,3,1.0,1.0,2769.0,3,Opposite-sex Couple,h,71.3527,63.0692,6.9023,129078,0.0823,2.7104,13.25,11.65
S092,Opposite-sex_couple_019_v,26.0,2.0,6840.0,red,Reality,0,2,6,1.0,1.0,2466.0,-3,Opposite-sex Couple,v,34.0967,61.2729,7.585,226298,1.7536,6.91,14.25,9.9
S092,Opposite-sex_couple_048_h,27.0,2.0,4912.0,blue,Fiction,0,0,1,1.0,1.0,795.0,3,Opposite-sex Couple,h,17.0385,42.5091,6.3582,135965,6.2044,9.7063,12.5,9.1
S092,Opposite-sex_couple_002_h,28.0,2.0,3979.0,blue,Fiction,0,0,0,1.0,1.0,839.0,3,Opposite-sex Couple,h,60.763,82.3112,7.7336,244927,8.5758,13.1763,13.2,10.55
S092,Opposite-sex_couple_047_v,29.0,2.0,3189.0,red,Reality,0,0,0,1.0,1.0,920.0,3,Opposite-sex Couple,v,45.5275,63.8914,7.6091,248159,4.3116,8.5673,13.05,9.5
S092,Opposite-sex_couple_042_h,30.0,2.0,8381.0,blue,Fiction,0,2,2,1.0,1.0,881.0,3,Opposite-sex Couple,h,49.6856,40.9533,7.2635,179529,29.7156,31.0599,13.55,9.25
S092,Male_020_v,31.0,2.0,2625.0,red,Reality,0,0,0,1.0,1.0,3760.0,3,Male,v,76.8132,61.7412,7.1453,157062,4.0439,6.6188,10.2,8.05
S092,Opposite-sex_couple_020_h,32.0,2.0,6220.0,red,Reality,1,3,3,1.0,1.0,2314.0,2,Opposite-sex Couple,h,55.3482,59.7471,7.2655,248017,-1.1208,-1.4586,13.3,10.55
S092,Male_014_v,33.0,2.0,3520.0,red,Reality,0,0,0,1.0,1.0,1118.0,3,Male,v,73.0604,48.9227,7.2601,151861,3.9097,2.0474,9.65,8.95
S092,Opposite-sex_couple_001_v,34.0,2.0,4821.0,red,Reality,0,0,1,1.0,1.0,1442.0,-2,Opposite-sex Couple,v,50.9569,69.5985,7.8416,189291,4.8773,15.3441,12.75,8.8
S092,Male_022_v,35.0,2.0,4755.0,red,Reality,0,1,1,1.0,1.0,1079.0,3,Male,v,43.1253,52.5585,7.6091,257785,2.6258,12.346,7.45,10.6
S092,Male_017_v,36.0,2.0,3777.0,blue,Fiction,0,0,0,1.0,1.0,1052.0,3,Male,v,31.538,56.3546,7.2051,276400,5.2385,7.6499,8.25,8.7
S092,Opposite-sex_couple_024_h,37.0,2.0,3719.0,blue,Fiction,1,1,2,1.0,1.0,1171.0,2,Opposite-sex Couple,h,63.8212,64.8712,7.414,222144,5.895,13.5005,13.2,11.35
S092,Male_009_v,38.0,2.0,4816.0,red,Reality,0,2,2,1.0,1.0,1625.0,2,Male,v,43.2111,60.8704,7.489,271374,13.4711,15.6762,10.6,7.7
S092,Opposite-sex_couple_035_h,39.0,2.0,7885.0,blue,Fiction,0,1,4,1.0,1.0,1318.0,3,Opposite-sex Couple,h,35.914,62.0043,7.6422,417587,5.8165,15.5562,13.3,9.2
S092,Opposite-sex_couple_009_h,40.0,2.0,2814.0,red,Reality,0,0,0,1.0,1.0,975.0,3,Opposite-sex Couple,h,37.7181,80.8616,7.5798,186883,1.8245,3.7651,13.45,10.05
S092,Opposite-sex_couple_013_h,41.0,2.0,22785.0,blue,Fiction,0,0,0,1.0,1.0,908.0,3,Opposite-sex Couple,h,49.891,55.1144,7.6887,265017,3.8167,7.5893,9.4,10.2
S092,Male_003_v,42.0,2.0,5387.0,red,Reality,0,0,0,1.0,1.0,827.0,3,Male,v,46.1739,49.4077,7.4926,228056,3.5967,7.3901,10.45,8.65
S092,Male_021_h,43.0,2.0,20986.0,red,Reality,0,0,0,1.0,1.0,7280.0,3,Male,h,57.763,37.3776,7.1043,326961,2.6508,1.566,9.15,7.75
S092,Male_005_v,44.0,2.0,4009.0,red,Reality,0,0,0,1.0,1.0,928.0,3,Male,v,19.09,43.8873,6.7516,170084,11.4089,17.2027,8.7,9.15
S092,Male_010_v,45.0,2.0,2249.0,red,Reality,0,0,0,1.0,1.0,780.0,3,Male,v,59.9546,67.3991,7.2976,160848,6.5991,11.7406,9.2,7.55
S092,Male_024_h,46.0,2.0,3819.0,red,Reality,0,1,1,1.0,1.0,2264.0,0,Male,h,35.3457,44.1672,7.3268,201056,11.8279,13.8626,11.1,7.75
S092,Opposite-sex_couple_008_h,47.0,2.0,3400.0,red,Reality,0,0,0,1.0,1.0,801.0,3,Opposite-sex Couple,h,16.5249,51.7477,4.6123,119546,6.2003,7.9397,13.7,10.9
S092,Male_013_v,48.0,2.0,3239.0,blue,Fiction,0,0,0,1.0,1.0,982.0,3,Male,v,44.0686,86.7349,7.4514,293448,11.5375,24.8859,9.95,9.05
S092,Male_025_v,49.0,2.0,2208.0,red,Reality,0,0,0,1.0,1.0,824.0,3,Male,v,29.0652,60.357,6.8769,267633,2.7805,-0.966,7.95,7.2
S092,Male_011_v,50.0,2.0,5849.0,blue,Fiction,0,0,0,1.0,1.0,939.0,3,Male,v,40.2007,66.7949,7.44,265717,8.1808,11.1864,10.0,7.65
S040,Opposite-sex_couple_016_v,1.0,2.0,11077.0,blue,Fiction,2,3,3,1.0,1.0,1305.0,2,Opposite-sex Couple,v,25.8676,34.2728,6.9387,193991,15.3644,22.8825,14.1,10.4
S040,Opposite-sex_couple_047_v,2.0,2.0,11000.0,blue,Fiction,0,1,3,1.0,1.0,1504.0,1,Opposite-sex Couple,v,45.5275,63.8914,7.6091,248159,4.3116,8.5673,13.05,9.5
S040,Opposite-sex_couple_018_h,3.0,2.0,8031.0,blue,Fiction,1,1,2,1.0,1.0,1804.0,3,Opposite-sex Couple,h,22.2668,20.2962,6.2371,160728,19.7776,23.7659,10.3,11.2
S040,Opposite-sex_couple_035_h,4.0,2.0,7394.0,green,Reality,1,3,3,1.0,1.0,2679.0,-2,Opposite-sex Couple,h,35.914,62.0043,7.6422,417587,5.8165,15.5562,13.3,9.2
S040,Male_010_v,5.0,2.0,5805.0,green,Reality,2,3,4,1.0,1.0,2166.0,2,Male,v,59.9546,67.3991,7.2976,160848,6.5991,11.7406,9.2,7.55
S040,Male_009_v,6.0,2.0,7676.0,blue,Fiction,1,2,3,1.0,1.0,1444.0,0,Male,v,43.2111,60.8704,7.489,271374,13.4711,15.6762,10.6,7.7
S040,Male_021_h,7.0,2.0,5843.0,blue,Fiction,1,2,3,1.0,1.0,1078.0,1,Male,h,57.763,37.3776,7.1043,326961,2.6508,1.566,9.15,7.75
S040,Male_008_v,8.0,2.0,11791.0,blue,Fiction,2,4,3,1.0,1.0,2525.0,1,Male,v,49.8422,61.1046,7.609,207491,14.1516,16.1108,9.15,9.15
S040,Male_018_v,9.0,2.0,6254.0,green,Reality,1,2,3,1.0,1.0,1924.0,-2,Male,v,57.09,71.0229,7.2597,175978,7.6306,11.6477,9.7,7.1
S040,Male_014_v,10.0,2.0,5573.0,green,Reality,4,4,4,1.0,1.0,1748.0,-2,Male,v,73.0604,48.9227,7.2601,151861,3.9097,2.0474,9.65,8.95
S040,Male_015_v,11.0,2.0,7095.0,green,Reality,3,3,3,1.0,1.0,2477.0,-1,Male,v,20.0917,76.4888,3.8868,167601,1.4845,8.8924,11.4,6.8
S040,Male_013_v,12.0,2.0,4534.0,blue,Fiction,2,2,3,1.0,1.0,1690.0,0,Male,v,44.0686,86.7349,7.4514,293448,11.5375,24.8859,9.95,9.05
S040,Male_016_v,13.0,2.0,5336.0,green,Reality,4,4,4,1.0,1.0,3040.0,0,Male,v,50.2338,45.7527,7.4858,216444,12.4281,14.1233,9.35,9.05
S040,Opposite-sex_couple_013_h,14.0,2.0,8933.0,green,Reality,1,1,2,1.0,1.0,2183.0,1,Opposite-sex Couple,h,49.891,55.1144,7.6887,265017,3.8167,7.5893,9.4,10.2
S040,Opposite-sex_couple_025_h,15.0,2.0,7348.0,green,Reality,5,5,4,1.0,1.0,1881.0,2,Opposite-sex Couple,h,43.3354,49.8527,7.4546,232724,16.8426,26.7224,12.9,11.9
S040,Male_007_h,16.0,2.0,4749.0,green,Reality,3,3,3,1.0,1.0,1297.0,3,Male,h,50.1922,54.4775,7.6965,469938,3.1066,14.9059,8.25,8.15
S040,Male_025_v,17.0,2.0,6829.0,green,Reality,0,1,3,1.0,1.0,1984.0,1,Male,v,29.0652,60.357,6.8769,267633,2.7805,-0.966,7.95,7.2
S040,Male_004_v,18.0,2.0,5824.0,blue,Fiction,2,2,3,1.0,1.0,1301.0,0,Male,v,31.1509,68.2319,7.0933,210323,-0.2366,7.0839,11.35,7.55
S040,Opposite-sex_couple_007_h,19.0,2.0,6861.0,green,Reality,1,2,3,1.0,1.0,1621.0,1,Opposite-sex Couple,h,22.6458,57.3072,6.5328,275394,12.4804,7.915,13.3,10.4
S040,Male_012_h,20.0,2.0,4787.0,green,Reality,3,3,3,1.0,1.0,1367.0,2,Male,h,76.3947,43.9723,7.2393,331233,4.1326,8.2885,8.8,6.7
S040,Opposite-sex_couple_005_h,21.0,2.0,5294.0,blue,Fiction,5,4,4,1.0,1.0,2672.0,2,Opposite-sex Couple,h,71.3527,63.0692,6.9023,129078,0.0823,2.7104,13.25,11.65
S040,Male_001_v,22.0,2.0,4210.0,green,Reality,0,0,1,1.0,1.0,1802.0,2,Male,v,60.0397,72.0716,7.7395,265152,4.5447,6.449,9.95,8.25
S040,Male_005_v,23.0,2.0,8099.0,blue,Fiction,0,1,2,1.0,1.0,1442.0,-3,Male,v,19.09,43.8873,6.7516,170084,11.4089,17.2027,8.7,9.15
S040,Opposite-sex_couple_001_v,24.0,2.0,5589.0,green,Reality,1,2,3,1.0,1.0,1855.0,-3,Opposite-sex Couple,v,50.9569,69.5985,7.8416,189291,4.8773,15.3441,12.75,8.8
S040,Opposite-sex_couple_014_h,25.0,2.0,6332.0,blue,Fiction,2,2,3,1.0,1.0,2345.0,1,Opposite-sex Couple,h,31.1618,55.9046,7.1043,170198,19.8601,20.9606,10.35,10.55
S040,Opposite-sex_couple_019_v,26.0,2.0,5136.0,blue,Fiction,0,0,3,1.0,1.0,1289.0,-2,Opposite-sex Couple,v,34.0967,61.2729,7.585,226298,1.7536,6.91,14.25,9.9
S040,Opposite-sex_couple_048_h,27.0,2.0,5955.0,green,Reality,4,4,4,1.0,1.0,1490.0,1,Opposite-sex Couple,h,17.0385,42.5091,6.3582,135965,6.2044,9.7063,12.5,9.1
S040,Male_019_h,28.0,2.0,7698.0,blue,Fiction,1,2,3,1.0,1.0,1502.0,2,Male,h,19.1464,33.4787,6.5824,150728,14.2369,16.1964,9.15,6.85
S040,Opposite-sex_couple_020_h,29.0,2.0,6317.0,blue,Fiction,3,3,3,1.0,1.0,1303.0,-3,Opposite-sex Couple,h,55.3482,59.7471,7.2655,248017,-1.1208,-1.4586,13.3,10.55
S040,Male_002_v,30.0,2.0,4242.0,blue,Fiction,3,3,3,1.0,1.0,1395.0,3,Male,v,42.743,65.8985,7.7155,221793,11.6582,-3.6073,10.0,7.5
S040,Opposite-sex_couple_017_v,31.0,2.0,5031.0,green,Reality,3,4,4,1.0,1.0,1936.0,1,Opposite-sex Couple,v,23.5619,43.2164,6.988,199604,6.3891,5.0569,13.75,11.35
S040,Opposite-sex_couple_042_h,32.0,2.0,4577.0,green,Reality,1,1,3,1.0,1.0,1452.0,-1,Opposite-sex Couple,h,49.6856,40.9533,7.2635,179529,29.7156,31.0599,13.55,9.25
S040,Male_017_v,33.0,2.0,4855.0,green,Reality,0,0,2,1.0,1.0,2434.0,-3,Male,v,31.538,56.3546,7.2051,276400,5.2385,7.6499,8.25,8.7
S040,Male_011_v,34.0,2.0,4522.0,blue,Fiction,2,2,3,1.0,1.0,1299.0,-2,Male,v,40.2007,66.7949,7.44,265717,8.1808,11.1864,10.0,7.65
S040,Male_022_v,35.0,2.0,5463.0,green,Reality,3,4,3,1.0,1.0,1328.0,-3,Male,v,43.1253,52.5585,7.6091,257785,2.6258,12.346,7.45,10.6
S040,Opposite-sex_couple_022_v,36.0,2.0,4998.0,green,Reality,1,2,3,1.0,1.0,1181.0,1,Opposite-sex Couple,v,46.9156,64.2866,7.61,253664,5.0465,30.4134,12.35,8.8
S040,Male_023_v,37.0,2.0,5682.0,green,Reality,1,2,3,1.0,1.0,2061.0,2,Male,v,51.0533,59.4542,7.7168,201176,12.5798,16.3443,11.65,8.15
S040,Opposite-sex_couple_012_h,38.0,2.0,5593.0,blue,Fiction,2,2,3,1.0,1.0,2403.0,1,Opposite-sex Couple,h,51.0648,48.3001,7.4745,174501,18.6779,27.0762,11.55,11.65
S040,Opposite-sex_couple_002_h,39.0,2.0,4491.0,green,Reality,4,5,4,1.0,1.0,1360.0,-1,Opposite-sex Couple,h,60.763,82.3112,7.7336,244927,8.5758,13.1763,13.2,10.55
S040,Male_020_v,40.0,2.0,4540.0,blue,Fiction,1,2,3,1.0,1.0,1739.0,-1,Male,v,76.8132,61.7412,7.1453,157062,4.0439,6.6188,10.2,8.05
S040,Opposite-sex_couple_024_h,41.0,2.0,3892.0,green,Reality,4,4,4,1.0,1.0,2991.0,1,Opposite-sex Couple,h,63.8212,64.8712,7.414,222144,5.895,13.5005,13.2,11.35
S040,Opposite-sex_couple_023_h,42.0,2.0,6469.0,blue,Fiction,1,2,3,1.0,1.0,1245.0,-3,Opposite-sex Couple,h,31.8043,72.0881,7.0663,190248,3.3207,4.7035,13.35,10.8
S040,Opposite-sex_couple_015_h,43.0,2.0,3877.0,blue,Fiction,3,4,3,1.0,1.0,1915.0,-1,Opposite-sex Couple,h,38.3611,75.1764,7.5486,164951,6.0222,7.7653,13.95,10.4
S040,Opposite-sex_couple_033_v,44.0,2.0,5500.0,blue,Fiction,3,4,4,1.0,1.0,1397.0,1,Opposite-sex Couple,v,30.0265,67.3131,6.6794,240015,8.9049,4.1706,13.25,9.75
S040,Male_024_h,45.0,2.0,5972.0,green,Reality,2,2,3,1.0,1.0,1676.0,-1,Male,h,35.3457,44.1672,7.3268,201056,11.8279,13.8626,11.1,7.75
S040,Opposite-sex_couple_009_h,46.0,2.0,6153.0,blue,Fiction,2,2,3,1.0,1.0,1759.0,2,Opposite-sex Couple,h,37.7181,80.8616,7.5798,186883,1.8245,3.7651,13.45,10.05
S040,Opposite-sex_couple_011_h,47.0,2.0,4471.0,green,Reality,1,2,3,1.0,1.0,1666.0,1,Opposite-sex Couple,h,52.5903,78.465,7.7598,283429,6.8592,8.7999,13.65,9.1
S040,Opposite-sex_couple_008_h,48.0,2.0,8959.0,green,Reality,3,4,4,1.0,1.0,1105.0,2,Opposite-sex Couple,h,16.5249,51.7477,4.6123,119546,6.2003,7.9397,13.7,10.9
S040,Male_006_v,49.0,2.0,4947.0,blue,Fiction,0,0,3,1.0,1.0,1177.0,2,Male,v,26.1872,40.1914,7.0614,206880,7.5483,10.2363,7.4,9.65
S040,Male_003_v,50.0,2.0,5766.0,blue,Fiction,1,1,3,1.0,1.0,2110.0,1,Male,v,46.1739,49.4077,7.4926,228056,3.5967,7.3901,10.45,8.65
S031,Opposite-sex_couple_017_v,1.0,2.0,15809.0,green,Reality,4,5,4,1.0,1.0,2712.0,2,Opposite-sex Couple,v,23.5619,43.2164,6.988,199604,6.3891,5.0569,13.75,11.35
S031,Opposite-sex_couple_018_h,2.0,2.0,14160.0,green,Reality,5,5,5,1.0,1.0,1981.0,2,Opposite-sex Couple,h,22.2668,20.2962,6.2371,160728,19.7776,23.7659,10.3,11.2
S031,Male_001_v,3.0,2.0,7836.0,green,Reality,0,0,0,1.0,1.0,3223.0,-2,Male,v,60.0397,72.0716,7.7395,265152,4.5447,6.449,9.95,8.25
S031,Male_009_v,4.0,2.0,12350.0,green,Reality,3,3,3,1.0,1.0,1414.0,3,Male,v,43.2111,60.8704,7.489,271374,13.4711,15.6762,10.6,7.7
S031,Male_003_v,5.0,2.0,12346.0,green,Reality,3,5,3,1.0,1.0,4444.0,3,Male,v,46.1739,49.4077,7.4926,228056,3.5967,7.3901,10.45,8.65
S031,Opposite-sex_couple_022_v,6.0,2.0,7984.0,green,Reality,5,5,4,1.0,1.0,2573.0,-3,Opposite-sex Couple,v,46.9156,64.2866,7.61,253664,5.0465,30.4134,12.35,8.8
S031,Opposite-sex_couple_012_h,7.0,2.0,8017.0,red,Fiction,6,6,6,1.0,1.0,5719.0,3,Opposite-sex Couple,h,51.0648,48.3001,7.4745,174501,18.6779,27.0762,11.55,11.65
S031,Male_013_v,8.0,2.0,12229.0,green,Reality,1,1,2,1.0,1.0,3971.0,0,Male,v,44.0686,86.7349,7.4514,293448,11.5375,24.8859,9.95,9.05
S031,Opposite-sex_couple_023_h,9.0,2.0,5249.0,red,Fiction,5,5,5,1.0,1.0,4183.0,3,Opposite-sex Couple,h,31.8043,72.0881,7.0663,190248,3.3207,4.7035,13.35,10.8
S031,Male_015_v,10.0,2.0,7956.0,red,Fiction,1,1,1,1.0,1.0,1562.0,3,Male,v,20.0917,76.4888,3.8868,167601,1.4845,8.8924,11.4,6.8
S031,Male_011_v,11.0,2.0,4050.0,red,Fiction,0,0,0,1.0,1.0,2553.0,-3,Male,v,40.2007,66.7949,7.44,265717,8.1808,11.1864,10.0,7.65
S031,Male_007_h,12.0,2.0,5621.0,red,Fiction,0,0,0,1.0,1.0,3926.0,1,Male,h,50.1922,54.4775,7.6965,469938,3.1066,14.9059,8.25,8.15
S031,Opposite-sex_couple_047_v,13.0,2.0,7160.0,green,Reality,3,3,2,1.0,1.0,1798.0,3,Opposite-sex Couple,v,45.5275,63.8914,7.6091,248159,4.3116,8.5673,13.05,9.5
S031,Opposite-sex_couple_009_h,14.0,2.0,4566.0,green,Reality,5,5,5,1.0,1.0,1681.0,2,Opposite-sex Couple,h,37.7181,80.8616,7.5798,186883,1.8245,3.7651,13.45,10.05
S031,Opposite-sex_couple_005_h,15.0,2.0,5262.0,red,Fiction,6,6,6,1.0,1.0,4100.0,2,Opposite-sex Couple,h,71.3527,63.0692,6.9023,129078,0.0823,2.7104,13.25,11.65
S031,Opposite-sex_couple_042_h,16.0,2.0,4454.0,red,Fiction,4,4,6,1.0,1.0,2045.0,2,Opposite-sex Couple,h,49.6856,40.9533,7.2635,179529,29.7156,31.0599,13.55,9.25
S031,Opposite-sex_couple_013_h,17.0,2.0,4407.0,green,Reality,0,0,0,1.0,1.0,1321.0,-3,Opposite-sex Couple,h,49.891,55.1144,7.6887,265017,3.8167,7.5893,9.4,10.2
S031,Male_012_h,18.0,2.0,5885.0,green,Reality,3,5,4,1.0,1.0,2164.0,3,Male,h,76.3947,43.9723,7.2393,331233,4.1326,8.2885,8.8,6.7
S031,Opposite-sex_couple_048_h,19.0,2.0,4983.0,green,Reality,5,5,4,1.0,1.0,7768.0,0,Opposite-sex Couple,h,17.0385,42.5091,6.3582,135965,6.2044,9.7063,12.5,9.1
S031,Opposite-sex_couple_014_h,20.0,2.0,7553.0,green,Reality,5,6,5,1.0,1.0,4069.0,0,Opposite-sex Couple,h,31.1618,55.9046,7.1043,170198,19.8601,20.9606,10.35,10.55
S031,Opposite-sex_couple_016_v,21.0,2.0,6148.0,green,Reality,3,5,4,1.0,1.0,1663.0,2,Opposite-sex Couple,v,25.8676,34.2728,6.9387,193991,15.3644,22.8825,14.1,10.4
S031,Opposite-sex_couple_035_h,22.0,2.0,6911.0,red,Fiction,5,5,5,1.0,1.0,5599.0,3,Opposite-sex Couple,h,35.914,62.0043,7.6422,417587,5.8165,15.5562,13.3,9.2
S031,Male_019_h,23.0,2.0,5186.0,green,Reality,0,0,0,1.0,1.0,2751.0,3,Male,h,19.1464,33.4787,6.5824,150728,14.2369,16.1964,9.15,6.85
S031,Male_021_h,24.0,2.0,5954.0,green,Reality,2,5,4,1.0,1.0,2305.0,-3,Male,h,57.763,37.3776,7.1043,326961,2.6508,1.566,9.15,7.75
S031,Male_018_v,25.0,2.0,14398.0,green,Reality,0,1,3,1.0,1.0,3252.0,0,Male,v,57.09,71.0229,7.2597,175978,7.6306,11.6477,9.7,7.1
S031,Male_016_v,26.0,2.0,6674.0,red,Fiction,0,0,0,1.0,1.0,1796.0,3,Male,v,50.2338,45.7527,7.4858,216444,12.4281,14.1233,9.35,9.05
S031,Opposite-sex_couple_024_h,27.0,2.0,7333.0,red,Fiction,3,5,5,1.0,1.0,3128.0,2,Opposite-sex Couple,h,63.8212,64.8712,7.414,222144,5.895,13.5005,13.2,11.35
S031,Male_006_v,28.0,2.0,4641.0,red,Fiction,0,0,0,1.0,1.0,3583.0,-2,Male,v,26.1872,40.1914,7.0614,206880,7.5483,10.2363,7.4,9.65
S031,Opposite-sex_couple_020_h,29.0,2.0,5337.0,red,Fiction,5,5,5,1.0,1.0,2373.0,2,Opposite-sex Couple,h,55.3482,59.7471,7.2655,248017,-1.1208,-1.4586,13.3,10.55
S031,Opposite-sex_couple_019_v,30.0,2.0,11878.0,green,Reality,2,6,6,1.0,1.0,1863.0,3,Opposite-sex Couple,v,34.0967,61.2729,7.585,226298,1.7536,6.91,14.25,9.9
S031,Male_025_v,31.0,2.0,15292.0,red,Fiction,2,2,2,1.0,1.0,3178.0,-1,Male,v,29.0652,60.357,6.8769,267633,2.7805,-0.966,7.95,7.2
S031,Male_008_v,32.0,2.0,4284.0,green,Reality,0,0,0,1.0,1.0,2686.0,-3,Male,v,49.8422,61.1046,7.609,207491,14.1516,16.1108,9.15,9.15
S031,Male_004_v,33.0,2.0,8383.0,green,Reality,1,1,1,1.0,1.0,1990.0,3,Male,v,31.1509,68.2319,7.0933,210323,-0.2366,7.0839,11.35,7.55
S031,Male_020_v,34.0,2.0,9490.0,green,Reality,3,3,3,1.0,1.0,1955.0,-3,Male,v,76.8132,61.7412,7.1453,157062,4.0439,6.6188,10.2,8.05
S031,Opposite-sex_couple_008_h,35.0,2.0,4946.0,green,Reality,5,5,5,1.0,1.0,2337.0,2,Opposite-sex Couple,h,16.5249,51.7477,4.6123,119546,6.2003,7.9397,13.7,10.9
S031,Opposite-sex_couple_002_h,36.0,2.0,4055.0,red,Fiction,6,6,6,1.0,1.0,1738.0,2,Opposite-sex Couple,h,60.763,82.3112,7.7336,244927,8.5758,13.1763,13.2,10.55
S031,Male_022_v,37.0,2.0,4226.0,red,Fiction,0,0,0,1.0,1.0,1698.0,-3,Male,v,43.1253,52.5585,7.6091,257785,2.6258,12.346,7.45,10.6
S031,Male_005_v,38.0,2.0,4602.0,red,Fiction,0,0,0,1.0,1.0,1755.0,-3,Male,v,19.09,43.8873,6.7516,170084,11.4089,17.2027,8.7,9.15
S031,Opposite-sex_couple_025_h,39.0,2.0,4328.0,green,Reality,6,6,6,1.0,1.0,1632.0,3,Opposite-sex Couple,h,43.3354,49.8527,7.4546,232724,16.8426,26.7224,12.9,11.9
S031,Male_010_v,40.0,2.0,11538.0,green,Reality,0,0,3,1.0,1.0,2536.0,2,Male,v,59.9546,67.3991,7.2976,160848,6.5991,11.7406,9.2,7.55
S031,Male_017_v,41.0,2.0,3978.0,red,Fiction,0,0,0,1.0,1.0,2653.0,2,Male,v,31.538,56.3546,7.2051,276400,5.2385,7.6499,8.25,8.7
S031,Opposite-sex_couple_033_v,42.0,2.0,4231.0,red,Fiction,5,5,5,1.0,1.0,1705.0,2,Opposite-sex Couple,v,30.0265,67.3131,6.6794,240015,8.9049,4.1706,13.25,9.75
S031,Male_014_v,43.0,2.0,5160.0,red,Fiction,0,0,0,1.0,1.0,3051.0,-3,Male,v,73.0604,48.9227,7.2601,151861,3.9097,2.0474,9.65,8.95
S031,Male_023_v,44.0,2.0,7731.0,red,Fiction,1,2,3,1.0,1.0,2269.0,-2,Male,v,51.0533,59.4542,7.7168,201176,12.5798,16.3443,11.65,8.15
S031,Opposite-sex_couple_007_h,45.0,2.0,4721.0,green,Reality,5,5,4,1.0,1.0,1706.0,3,Opposite-sex Couple,h,22.6458,57.3072,6.5328,275394,12.4804,7.915,13.3,10.4
S031,Male_002_v,46.0,2.0,5668.0,green,Reality,0,0,0,1.0,1.0,2776.0,-1,Male,v,42.743,65.8985,7.7155,221793,11.6582,-3.6073,10.0,7.5
S031,Opposite-sex_couple_015_h,47.0,2.0,5317.0,red,Fiction,4,4,4,1.0,1.0,1822.0,3,Opposite-sex Couple,h,38.3611,75.1764,7.5486,164951,6.0222,7.7653,13.95,10.4
S031,Opposite-sex_couple_011_h,48.0,2.0,5303.0,red,Fiction,4,5,5,1.0,1.0,1467.0,3,Opposite-sex Couple,h,52.5903,78.465,7.7598,283429,6.8592,8.7999,13.65,9.1
S031,Opposite-sex_couple_001_v,49.0,2.0,5768.0,red,Fiction,5,5,5,1.0,1.0,5336.0,3,Opposite-sex Couple,v,50.9569,69.5985,7.8416,189291,4.8773,15.3441,12.75,8.8
S031,Male_024_h,50.0,2.0,5910.0,red,Fiction,3,5,5,1.0,1.0,1936.0,3,Male,h,35.3457,44.1672,7.3268,201056,11.8279,13.8626,11.1,7.75
S176,Opposite-sex_couple_013_h,1.0,2.0,7167.0,blue,Fiction,3,4,3,1.0,1.0,1362.0,2,Opposite-sex Couple,h,49.891,55.1144,7.6887,265017,3.8167,7.5893,9.4,10.2
S176,Opposite-sex_couple_019_v,2.0,2.0,6368.0,blue,Fiction,2,3,4,1.0,1.0,1707.0,3,Opposite-sex Couple,v,34.0967,61.2729,7.585,226298,1.7536,6.91,14.25,9.9
S176,Female_004_v,3.0,2.0,4586.0,blue,Fiction,3,4,3,1.0,1.0,1839.0,3,Female,v,66.2497,74.0566,6.894,218444,2.2245,-3.4638,13.1,9.4
S176,Female_005_v,4.0,2.0,5551.0,blue,Fiction,4,5,3,1.0,1.0,774.0,2,Female,v,44.8525,70.3649,7.6863,270082,11.7249,10.9722,10.8,10.25
S176,Opposite-sex_couple_022_v,5.0,2.0,4614.0,green,Reality,3,3,3,1.0,1.0,981.0,3,Opposite-sex Couple,v,46.9156,64.2866,7.61,253664,5.0465,30.4134,12.35,8.8
S176,Female_013_h,6.0,2.0,6190.0,green,Reality,3,3,3,1.0,1.0,1971.0,3,Female,h,21.5101,68.6277,4.6639,137297,3.4277,3.1779,12.1,10.0
S176,Opposite-sex_couple_025_h,7.0,2.0,5220.0,green,Reality,4,5,4,1.0,1.0,1812.0,2,Opposite-sex Couple,h,43.3354,49.8527,7.4546,232724,16.8426,26.7224,12.9,11.9
S176,Female_022_h,8.0,2.0,5116.0,green,Reality,4,5,4,1.0,1.0,1751.0,3,Female,h,56.5834,63.7769,7.3921,216160,15.4662,4.3765,11.55,11.6
S176,Female_001_h,9.0,2.0,4141.0,green,Reality,3,4,3,1.0,1.0,3986.0,2,Female,h,58.36,49.2428,7.2143,249227,27.1818,10.7039,12.3,8.65
S176,Female_007_v,10.0,2.0,5327.0,blue,Fiction,3,4,3,1.0,1.0,2637.0,-1,Female,v,41.4323,63.1534,7.4045,138365,-1.8072,2.4653,12.95,8.55
S176,Female_009_h,11.0,2.0,5101.0,green,Reality,4,4,4,1.0,1.0,946.0,2,Female,h,43.0143,73.5278,6.6181,176869,11.341,22.514,12.0,10.25
S176,Female_021_h,12.0,2.0,6425.0,green,Reality,5,5,4,1.0,1.0,883.0,-2,Female,h,62.5048,59.7605,7.3816,237825,8.8278,10.335,11.4,10.75
S176,Female_008_v,13.0,2.0,4481.0,blue,Fiction,4,4,3,1.0,1.0,1386.0,-2,Female,v,52.8173,72.8334,7.4938,155798,1.2756,4.492,11.85,8.45
S176,Opposite-sex_couple_020_h,14.0,2.0,4721.0,blue,Fiction,4,4,4,1.0,1.0,1388.0,-2,Opposite-sex Couple,h,55.3482,59.7471,7.2655,248017,-1.1208,-1.4586,13.3,10.55
S176,Opposite-sex_couple_005_h,15.0,2.0,5000.0,blue,Fiction,5,5,4,1.0,1.0,1582.0,3,Opposite-sex Couple,h,71.3527,63.0692,6.9023,129078,0.0823,2.7104,13.25,11.65
S176,Opposite-sex_couple_023_h,16.0,2.0,3651.0,green,Reality,5,5,5,1.0,1.0,2031.0,2,Opposite-sex Couple,h,31.8043,72.0881,7.0663,190248,3.3207,4.7035,13.35,10.8
S176,Female_017_v,17.0,2.0,4358.0,blue,Fiction,4,4,4,1.0,1.0,1723.0,3,Female,v,30.0066,71.3798,7.3457,261977,11.5136,10.9459,12.5,10.45
S176,Opposite-sex_couple_024_h,18.0,2.0,4639.0,green,Reality,4,5,4,1.0,1.0,1229.0,-2,Opposite-sex Couple,h,63.8212,64.8712,7.414,222144,5.895,13.5005,13.2,11.35
S176,Female_020_v,19.0,2.0,5911.0,green,Reality,5,5,4,1.0,1.0,1939.0,2,Female,v,50.7307,36.7955,7.0191,173444,4.4367,4.5166,12.25,10.4
S176,Opposite-sex_couple_047_v,20.0,2.0,3406.0,blue,Fiction,4,4,4,1.0,1.0,1548.0,1,Opposite-sex Couple,v,45.5275,63.8914,7.6091,248159,4.3116,8.5673,13.05,9.5
S176,Opposite-sex_couple_001_v,21.0,2.0,3782.0,blue,Fiction,4,5,4,1.0,1.0,1625.0,-1,Opposite-sex Couple,v,50.9569,69.5985,7.8416,189291,4.8773,15.3441,12.75,8.8
S176,Opposite-sex_couple_014_h,22.0,2.0,4666.0,blue,Fiction,5,6,5,1.0,1.0,1244.0,3,Opposite-sex Couple,h,31.1618,55.9046,7.1043,170198,19.8601,20.9606,10.35,10.55
S176,Opposite-sex_couple_035_h,23.0,2.0,3629.0,green,Reality,4,4,4,1.0,1.0,2488.0,2,Opposite-sex Couple,h,35.914,62.0043,7.6422,417587,5.8165,15.5562,13.3,9.2
S176,Opposite-sex_couple_048_h,24.0,2.0,5443.0,green,Reality,4,4,4,1.0,1.0,1456.0,2,Opposite-sex Couple,h,17.0385,42.5091,6.3582,135965,6.2044,9.7063,12.5,9.1
S176,Female_003_v,25.0,2.0,4376.0,blue,Fiction,4,5,4,1.0,1.0,1787.0,-1,Female,v,71.1543,54.6216,7.4449,118707,7.0815,2.7069,12.4,9.95
S176,Opposite-sex_couple_018_h,26.0,2.0,4454.0,blue,Fiction,5,6,5,1.0,1.0,1584.0,-1,Opposite-sex Couple,h,22.2668,20.2962,6.2371,160728,19.7776,23.7659,10.3,11.2
S176,Female_012_v,27.0,2.0,3097.0,green,Reality,4,5,4,1.0,1.0,2102.0,3,Female,v,57.6698,65.0532,7.8207,207243,4.5309,8.2501,12.75,9.3
S176,Opposite-sex_couple_007_h,28.0,2.0,3272.0,green,Reality,4,5,4,1.0,1.0,1364.0,3,Opposite-sex Couple,h,22.6458,57.3072,6.5328,275394,12.4804,7.915,13.3,10.4
S176,Opposite-sex_couple_011_h,29.0,2.0,4459.0,blue,Fiction,4,5,4,1.0,1.0,3033.0,2,Opposite-sex Couple,h,52.5903,78.465,7.7598,283429,6.8592,8.7999,13.65,9.1
S176,Female_024_v,30.0,2.0,4339.0,blue,Fiction,4,5,4,1.0,1.0,1843.0,2,Female,v,19.0471,55.6639,6.7429,165161,4.39,1.2286,12.95,9.35
S176,Opposite-sex_couple_012_h,31.0,2.0,3661.0,green,Reality,5,6,5,1.0,1.0,1567.0,3,Opposite-sex Couple,h,51.0648,48.3001,7.4745,174501,18.6779,27.0762,11.55,11.65
S176,Opposite-sex_couple_015_h,32.0,2.0,6856.0,green,Reality,4,5,4,1.0,1.0,963.0,2,Opposite-sex Couple,h,38.3611,75.1764,7.5486,164951,6.0222,7.7653,13.95,10.4
S176,Female_011_h,33.0,2.0,7445.0,green,Reality,4,5,4,1.0,1.0,2788.0,-3,Female,h,59.689,56.5583,7.4167,142606,7.0771,8.9211,13.65,9.3
S176,Female_006_v,34.0,2.0,4915.0,green,Reality,4,5,4,1.0,1.0,2263.0,-1,Female,v,63.1318,63.865,7.7492,186016,2.4502,14.6292,12.2,8.95
S176,Female_010_h,35.0,2.0,4632.0,green,Reality,4,4,4,1.0,1.0,1326.0,3,Female,h,19.4425,59.1991,6.5932,175241,9.5547,5.4788,12.45,8.9
S176,Opposite-sex_couple_042_h,36.0,2.0,4688.0,blue,Fiction,3,4,4,1.0,1.0,2039.0,3,Opposite-sex Couple,h,49.6856,40.9533,7.2635,179529,29.7156,31.0599,13.55,9.25
S176,Female_025_h,37.0,2.0,5320.0,blue,Fiction,4,4,4,1.0,1.0,2029.0,-2,Female,h,73.3617,60.3781,7.5139,216382,5.3208,0.3346,12.35,9.0
S176,Female_002_h,38.0,2.0,4018.0,green,Reality,4,5,4,1.0,1.0,3444.0,1,Female,h,32.6608,57.3367,7.5265,428384,0.1224,13.5464,13.2,10.3
S176,Female_023_h,39.0,2.0,5034.0,blue,Fiction,5,6,5,1.0,1.0,1487.0,-2,Female,h,20.4158,63.53,6.0347,214797,1.8632,7.0814,12.7,9.95
S176,Female_014_v,40.0,2.0,3465.0,green,Reality,4,5,4,1.0,1.0,1757.0,-1,Female,v,63.681,76.0052,7.242,187483,5.436,12.6621,12.7,9.25
S176,Female_019_h,41.0,2.0,2955.0,green,Reality,4,4,4,1.0,1.0,916.0,2,Female,h,48.6266,36.3153,7.1507,254048,23.4717,33.9492,11.5,9.15
S176,Female_018_h,42.0,2.0,4029.0,blue,Fiction,5,6,5,1.0,1.0,1915.0,-1,Female,h,73.3265,38.1936,6.9748,275330,3.457,12.5327,12.85,10.6
S176,Opposite-sex_couple_008_h,43.0,2.0,3660.0,blue,Fiction,5,6,5,1.0,1.0,1319.0,2,Opposite-sex Couple,h,16.5249,51.7477,4.6123,119546,6.2003,7.9397,13.7,10.9
S176,Opposite-sex_couple_017_v,44.0,2.0,2851.0,green,Reality,4,5,4,1.0,1.0,3593.0,3,Opposite-sex Couple,v,23.5619,43.2164,6.988,199604,6.3891,5.0569,13.75,11.35
S176,Female_016_h,45.0,2.0,2894.0,blue,Fiction,4,4,4,1.0,1.0,2588.0,-1,Female,h,52.7456,37.7359,7.2035,198286,33.7434,20.4305,12.5,8.0
S176,Opposite-sex_couple_016_v,46.0,2.0,7124.0,green,Reality,4,5,5,1.0,1.0,2865.0,1,Opposite-sex Couple,v,25.8676,34.2728,6.9387,193991,15.3644,22.8825,14.1,10.4
S176,Opposite-sex_couple_009_h,47.0,2.0,4740.0,green,Reality,5,6,5,1.0,1.0,2566.0,-2,Opposite-sex Couple,h,37.7181,80.8616,7.5798,186883,1.8245,3.7651,13.45,10.05
S176,Female_015_v,48.0,2.0,3724.0,blue,Fiction,4,5,4,1.0,1.0,1027.0,3,Female,v,65.2389,53.402,7.5418,171124,8.0169,14.7847,13.7,9.6
S176,Opposite-sex_couple_033_v,49.0,2.0,3549.0,blue,Fiction,4,5,5,1.0,1.0,941.0,3,Opposite-sex Couple,v,30.0265,67.3131,6.6794,240015,8.9049,4.1706,13.25,9.75
S176,Opposite-sex_couple_002_h,50.0,2.0,20353.0,green,Reality,4,5,4,1.0,1.0,819.0,2,Opposite-sex Couple,h,60.763,82.3112,7.7336,244927,8.5758,13.1763,13.2,10.55
S067,Female_014_v,1.0,2.0,13461.0,blue,Fiction,1,1,1,1.0,1.0,2552.0,-3,Female,v,63.681,76.0052,7.242,187483,5.436,12.6621,12.7,9.25
S067,Opposite-sex_couple_023_h,2.0,2.0,6215.0,green,Reality,5,5,5,1.0,1.0,1600.0,-3,Opposite-sex Couple,h,31.8043,72.0881,7.0663,190248,3.3207,4.7035,13.35,10.8
S067,Female_018_h,3.0,2.0,5625.0,blue,Fiction,6,6,6,1.0,1.0,1172.0,3,Female,h,73.3265,38.1936,6.9748,275330,3.457,12.5327,12.85,10.6
S067,Opposite-sex_couple_013_h,4.0,2.0,4899.0,green,Reality,0,0,0,1.0,1.0,4068.0,3,Opposite-sex Couple,h,49.891,55.1144,7.6887,265017,3.8167,7.5893,9.4,10.2
S067,Opposite-sex_couple_024_h,5.0,2.0,8549.0,blue,Fiction,3,2,4,1.0,1.0,2183.0,2,Opposite-sex Couple,h,63.8212,64.8712,7.414,222144,5.895,13.5005,13.2,11.35
S067,Opposite-sex_couple_011_h,6.0,2.0,5458.0,blue,Fiction,1,2,1,1.0,1.0,1796.0,-3,Opposite-sex Couple,h,52.5903,78.465,7.7598,283429,6.8592,8.7999,13.65,9.1
S067,Opposite-sex_couple_047_v,7.0,2.0,4986.0,green,Reality,0,0,0,1.0,1.0,1844.0,0,Opposite-sex Couple,v,45.5275,63.8914,7.6091,248159,4.3116,8.5673,13.05,9.5
S067,Opposite-sex_couple_017_v,8.0,2.0,5814.0,blue,Fiction,2,2,2,1.0,1.0,1911.0,-3,Opposite-sex Couple,v,23.5619,43.2164,6.988,199604,6.3891,5.0569,13.75,11.35
S067,Opposite-sex_couple_014_h,9.0,2.0,6647.0,green,Reality,6,5,5,1.0,1.0,1253.0,3,Opposite-sex Couple,h,31.1618,55.9046,7.1043,170198,19.8601,20.9606,10.35,10.55
S067,Female_007_v,10.0,2.0,7107.0,blue,Fiction,1,0,0,1.0,1.0,1522.0,-3,Female,v,41.4323,63.1534,7.4045,138365,-1.8072,2.4653,12.95,8.55
S067,Female_013_h,11.0,2.0,5023.0,green,Reality,6,6,6,1.0,1.0,1270.0,3,Female,h,21.5101,68.6277,4.6639,137297,3.4277,3.1779,12.1,10.0
S067,Opposite-sex_couple_009_h,12.0,2.0,5189.0,green,Reality,6,6,6,1.0,1.0,1897.0,3,Opposite-sex Couple,h,37.7181,80.8616,7.5798,186883,1.8245,3.7651,13.45,10.05
S067,Opposite-sex_couple_001_v,13.0,2.0,6430.0,green,Reality,0,0,0,1.0,1.0,3219.0,0,Opposite-sex Couple,v,50.9569,69.5985,7.8416,189291,4.8773,15.3441,12.75,8.8
S067,Opposite-sex_couple_042_h,14.0,2.0,6373.0,blue,Fiction,0,0,0,1.0,1.0,1279.0,-3,Opposite-sex Couple,h,49.6856,40.9533,7.2635,179529,29.7156,31.0599,13.55,9.25
S067,Opposite-sex_couple_025_h,15.0,2.0,5719.0,green,Reality,6,6,6,1.0,1.0,1873.0,3,Opposite-sex Couple,h,43.3354,49.8527,7.4546,232724,16.8426,26.7224,12.9,11.9
S067,Female_011_h,16.0,2.0,7905.0,blue,Fiction,3,4,3,1.0,1.0,1563.0,-3,Female,h,59.689,56.5583,7.4167,142606,7.0771,8.9211,13.65,9.3
S067,Opposite-sex_couple_015_h,17.0,2.0,5191.0,green,Reality,1,1,0,1.0,1.0,1785.0,-3,Opposite-sex Couple,h,38.3611,75.1764,7.5486,164951,6.0222,7.7653,13.95,10.4
S067,Opposite-sex_couple_048_h,18.0,2.0,6934.0,blue,Fiction,0,0,0,1.0,1.0,1819.0,0,Opposite-sex Couple,h,17.0385,42.5091,6.3582,135965,6.2044,9.7063,12.5,9.1
S067,Female_016_h,19.0,2.0,7385.0,green,Reality,4,3,4,1.0,1.0,2072.0,1,Female,h,52.7456,37.7359,7.2035,198286,33.7434,20.4305,12.5,8.0
S067,Female_012_v,20.0,2.0,5188.0,green,Reality,3,3,3,1.0,1.0,1591.0,-3,Female,v,57.6698,65.0532,7.8207,207243,4.5309,8.2501,12.75,9.3
S067,Opposite-sex_couple_035_h,21.0,2.0,5390.0,blue,Fiction,0,0,0,1.0,1.0,1650.0,0,Opposite-sex Couple,h,35.914,62.0043,7.6422,417587,5.8165,15.5562,13.3,9.2
S067,Female_006_v,22.0,2.0,5421.0,green,Reality,6,6,6,1.0,1.0,1598.0,3,Female,v,63.1318,63.865,7.7492,186016,2.4502,14.6292,12.2,8.95
S067,Opposite-sex_couple_019_v,23.0,2.0,5698.0,green,Reality,0,2,2,1.0,1.0,1800.0,-3,Opposite-sex Couple,v,34.0967,61.2729,7.585,226298,1.7536,6.91,14.25,9.9
S067,Female_021_h,24.0,2.0,4902.0,green,Reality,6,5,6,1.0,1.0,6927.0,0,Female,h,62.5048,59.7605,7.3816,237825,8.8278,10.335,11.4,10.75
S067,Opposite-sex_couple_033_v,25.0,2.0,4607.0,blue,Fiction,0,0,0,1.0,1.0,1271.0,3,Opposite-sex Couple,v,30.0265,67.3131,6.6794,240015,8.9049,4.1706,13.25,9.75
S067,Opposite-sex_couple_022_v,26.0,2.0,4638.0,green,Reality,0,0,0,1.0,1.0,1677.0,0,Opposite-sex Couple,v,46.9156,64.2866,7.61,253664,5.0465,30.4134,12.35,8.8
S067,Female_003_v,27.0,2.0,5804.0,blue,Fiction,0,0,0,1.0,1.0,1192.0,-3,Female,v,71.1543,54.6216,7.4449,118707,7.0815,2.7069,12.4,9.95
S067,Opposite-sex_couple_020_h,28.0,2.0,4626.0,blue,Fiction,2,2,2,1.0,1.0,1481.0,-3,Opposite-sex Couple,h,55.3482,59.7471,7.2655,248017,-1.1208,-1.4586,13.3,10.55
S067,Female_001_h,29.0,2.0,6533.0,blue,Fiction,4,4,4,1.0,1.0,1370.0,3,Female,h,58.36,49.2428,7.2143,249227,27.1818,10.7039,12.3,8.65
S067,Opposite-sex_couple_002_h,30.0,2.0,5193.0,blue,Fiction,0,0,0,1.0,1.0,1800.0,-3,Opposite-sex Couple,h,60.763,82.3112,7.7336,244927,8.5758,13.1763,13.2,10.55
S067,Female_002_h,31.0,2.0,5153.0,blue,Fiction,6,6,6,1.0,1.0,2040.0,3,Female,h,32.6608,57.3367,7.5265,428384,0.1224,13.5464,13.2,10.3
S067,Female_023_h,32.0,2.0,4568.0,green,Reality,4,4,4,1.0,1.0,1700.0,-3,Female,h,20.4158,63.53,6.0347,214797,1.8632,7.0814,12.7,9.95
S067,Female_020_v,33.0,2.0,5423.0,green,Reality,6,6,6,1.0,1.0,1675.0,3,Female,v,50.7307,36.7955,7.0191,173444,4.4367,4.5166,12.25,10.4
S067,Opposite-sex_couple_005_h,34.0,2.0,4995.0,green,Reality,6,6,6,1.0,1.0,1379.0,3,Opposite-sex Couple,h,71.3527,63.0692,6.9023,129078,0.0823,2.7104,13.25,11.65
S067,Opposite-sex_couple_007_h,35.0,2.0,4925.0,blue,Fiction,0,0,0,1.0,1.0,3959.0,0,Opposite-sex Couple,h,22.6458,57.3072,6.5328,275394,12.4804,7.915,13.3,10.4
S067,Female_010_h,36.0,2.0,7270.0,green,Reality,3,3,3,1.0,1.0,1625.0,-3,Female,h,19.4425,59.1991,6.5932,175241,9.5547,5.4788,12.45,8.9
S067,Opposite-sex_couple_012_h,37.0,2.0,4927.0,green,Reality,5,6,6,1.0,1.0,1644.0,3,Opposite-sex Couple,h,51.0648,48.3001,7.4745,174501,18.6779,27.0762,11.55,11.65
S067,Female_025_h,38.0,2.0,4850.0,green,Reality,3,3,3,1.0,1.0,1316.0,3,Female,h,73.3617,60.3781,7.5139,216382,5.3208,0.3346,12.35,9.0
S067,Female_022_h,39.0,2.0,5796.0,green,Reality,6,6,6,1.0,1.0,1807.0,3,Female,h,56.5834,63.7769,7.3921,216160,15.4662,4.3765,11.55,11.6
S067,Female_008_v,40.0,2.0,5357.0,blue,Fiction,6,6,6,1.0,1.0,1693.0,-3,Female,v,52.8173,72.8334,7.4938,155798,1.2756,4.492,11.85,8.45
S067,Female_019_h,41.0,2.0,6857.0,blue,Fiction,4,5,5,1.0,1.0,1783.0,0,Female,h,48.6266,36.3153,7.1507,254048,23.4717,33.9492,11.5,9.15
S067,Opposite-sex_couple_018_h,42.0,2.0,5047.0,blue,Fiction,6,6,6,1.0,1.0,1865.0,3,Opposite-sex Couple,h,22.2668,20.2962,6.2371,160728,19.7776,23.7659,10.3,11.2
S067,Female_017_v,43.0,2.0,4933.0,green,Reality,5,5,5,1.0,1.0,2345.0,0,Female,v,30.0066,71.3798,7.3457,261977,11.5136,10.9459,12.5,10.45
S067,Opposite-sex_couple_016_v,44.0,2.0,4539.0,green,Reality,2,2,2,1.0,1.0,1909.0,2,Opposite-sex Couple,v,25.8676,34.2728,6.9387,193991,15.3644,22.8825,14.1,10.4
S067,Opposite-sex_couple_008_h,45.0,2.0,4473.0,blue,Fiction,4,4,4,1.0,1.0,1144.0,-3,Opposite-sex Couple,h,16.5249,51.7477,4.6123,119546,6.2003,7.9397,13.7,10.9
S067,Female_005_v,46.0,2.0,4826.0,blue,Fiction,2,2,2,1.0,1.0,1683.0,3,Female,v,44.8525,70.3649,7.6863,270082,11.7249,10.9722,10.8,10.25
S067,Female_004_v,47.0,2.0,5796.0,green,Reality,1,1,1,1.0,1.0,1964.0,-3,Female,v,66.2497,74.0566,6.894,218444,2.2245,-3.4638,13.1,9.4
S067,Female_009_h,48.0,2.0,4529.0,green,Reality,5,5,5,1.0,1.0,1784.0,3,Female,h,43.0143,73.5278,6.6181,176869,11.341,22.514,12.0,10.25
S067,Female_015_v,49.0,2.0,4412.0,blue,Fiction,1,1,1,1.0,1.0,1471.0,-3,Female,v,65.2389,53.402,7.5418,171124,8.0169,14.7847,13.7,9.6
S067,Female_024_v,50.0,2.0,4970.0,blue,Fiction,1,1,1,1.0,1.0,1479.0,-3,Female,v,19.0471,55.6639,6.7429,165161,4.39,1.2286,12.95,9.35
S186,Female_024_v,1.0,2.0,10461.0,blue,Reality,3,4,4,1.0,1.0,2170.0,3,Female,v,19.0471,55.6639,6.7429,165161,4.39,1.2286,12.95,9.35
S186,Opposite-sex_couple_012_h,2.0,2.0,18481.0,red,Fiction,5,5,4,1.0,1.0,1831.0,3,Opposite-sex Couple,h,51.0648,48.3001,7.4745,174501,18.6779,27.0762,11.55,11.65
S186,Opposite-sex_couple_001_v,3.0,2.0,11723.0,blue,Reality,3,3,4,1.0,1.0,2508.0,-2,Opposite-sex Couple,v,50.9569,69.5985,7.8416,189291,4.8773,15.3441,12.75,8.8
S186,Female_013_h,4.0,2.0,10539.0,red,Fiction,5,5,4,1.0,1.0,2136.0,-3,Female,h,21.5101,68.6277,4.6639,137297,3.4277,3.1779,12.1,10.0
S186,Opposite-sex_couple_025_h,5.0,2.0,9499.0,blue,Reality,6,6,6,1.0,1.0,3726.0,3,Opposite-sex Couple,h,43.3354,49.8527,7.4546,232724,16.8426,26.7224,12.9,11.9
S186,Opposite-sex_couple_002_h,6.0,2.0,6155.0,red,Fiction,4,3,4,1.0,1.0,2211.0,3,Opposite-sex Couple,h,60.763,82.3112,7.7336,244927,8.5758,13.1763,13.2,10.55
S186,Opposite-sex_couple_022_v,7.0,2.0,9236.0,blue,Reality,4,4,4,1.0,1.0,2359.0,3,Opposite-sex Couple,v,46.9156,64.2866,7.61,253664,5.0465,30.4134,12.35,8.8
S186,Female_003_v,8.0,2.0,10009.0,blue,Reality,5,5,5,1.0,1.0,2617.0,-3,Female,v,71.1543,54.6216,7.4449,118707,7.0815,2.7069,12.4,9.95
S186,Opposite-sex_couple_033_v,9.0,2.0,10072.0,red,Fiction,4,3,4,1.0,1.0,4382.0,-2,Opposite-sex Couple,v,30.0265,67.3131,6.6794,240015,8.9049,4.1706,13.25,9.75
S186,Opposite-sex_couple_009_h,10.0,2.0,6052.0,blue,Reality,5,6,5,1.0,1.0,1977.0,-3,Opposite-sex Couple,h,37.7181,80.8616,7.5798,186883,1.8245,3.7651,13.45,10.05
S186,Female_020_v,11.0,2.0,11418.0,blue,Reality,6,6,6,1.0,1.0,2646.0,-2,Female,v,50.7307,36.7955,7.0191,173444,4.4367,4.5166,12.25,10.4
S186,Opposite-sex_couple_020_h,12.0,2.0,9828.0,red,Fiction,4,5,6,1.0,1.0,2321.0,3,Opposite-sex Couple,h,55.3482,59.7471,7.2655,248017,-1.1208,-1.4586,13.3,10.55
S186,Female_018_h,13.0,2.0,6832.0,blue,Reality,6,6,6,1.0,1.0,2082.0,3,Female,h,73.3265,38.1936,6.9748,275330,3.457,12.5327,12.85,10.6
S186,Opposite-sex_couple_007_h,14.0,2.0,6441.0,blue,Reality,4,4,4,1.0,1.0,2010.0,3,Opposite-sex Couple,h,22.6458,57.3072,6.5328,275394,12.4804,7.915,13.3,10.4
S186,Female_001_h,15.0,2.0,9451.0,red,Fiction,4,4,3,1.0,1.0,3180.0,-2,Female,h,58.36,49.2428,7.2143,249227,27.1818,10.7039,12.3,8.65
S186,Female_025_h,16.0,2.0,6103.0,red,Fiction,4,5,4,1.0,1.0,2217.0,-3,Female,h,73.3617,60.3781,7.5139,216382,5.3208,0.3346,12.35,9.0
S186,Opposite-sex_couple_035_h,17.0,2.0,9989.0,blue,Reality,4,4,5,1.0,1.0,2395.0,-3,Opposite-sex Couple,h,35.914,62.0043,7.6422,417587,5.8165,15.5562,13.3,9.2
S186,Opposite-sex_couple_047_v,18.0,2.0,9087.0,red,Fiction,4,5,5,1.0,1.0,2204.0,3,Opposite-sex Couple,v,45.5275,63.8914,7.6091,248159,4.3116,8.5673,13.05,9.5
S186,Opposite-sex_couple_048_h,19.0,2.0,5614.0,red,Fiction,4,4,4,1.0,1.0,1941.0,3,Opposite-sex Couple,h,17.0385,42.5091,6.3582,135965,6.2044,9.7063,12.5,9.1
S186,Female_012_v,20.0,2.0,6947.0,blue,Reality,5,6,5,1.0,1.0,2175.0,3,Female,v,57.6698,65.0532,7.8207,207243,4.5309,8.2501,12.75,9.3
S186,Female_010_h,21.0,2.0,4960.0,red,Fiction,6,6,6,1.0,1.0,2230.0,3,Female,h,19.4425,59.1991,6.5932,175241,9.5547,5.4788,12.45,8.9
S186,Opposite-sex_couple_023_h,22.0,2.0,4970.0,blue,Reality,6,5,5,1.0,1.0,3308.0,1,Opposite-sex Couple,h,31.8043,72.0881,7.0663,190248,3.3207,4.7035,13.35,10.8
S186,Female_005_v,23.0,2.0,5028.0,blue,Reality,5,5,5,1.0,1.0,1919.0,3,Female,v,44.8525,70.3649,7.6863,270082,11.7249,10.9722,10.8,10.25
S186,Female_017_v,24.0,2.0,5907.0,red,Fiction,4,5,4,1.0,1.0,5163.0,-2,Female,v,30.0066,71.3798,7.3457,261977,11.5136,10.9459,12.5,10.45
S186,Female_006_v,25.0,2.0,4585.0,blue,Reality,5,5,5,1.0,1.0,2247.0,-3,Female,v,63.1318,63.865,7.7492,186016,2.4502,14.6292,12.2,8.95
S186,Female_008_v,26.0,2.0,5497.0,red,Fiction,5,5,5,1.0,1.0,2106.0,3,Female,v,52.8173,72.8334,7.4938,155798,1.2756,4.492,11.85,8.45
S186,Opposite-sex_couple_011_h,27.0,2.0,4294.0,red,Fiction,5,5,5,1.0,1.0,2383.0,3,Opposite-sex Couple,h,52.5903,78.465,7.7598,283429,6.8592,8.7999,13.65,9.1
S186,Opposite-sex_couple_017_v,28.0,2.0,5371.0,red,Fiction,6,5,5,1.0,1.0,2803.0,3,Opposite-sex Couple,v,23.5619,43.2164,6.988,199604,6.3891,5.0569,13.75,11.35
S186,Opposite-sex_couple_019_v,29.0,2.0,4478.0,red,Fiction,4,4,4,1.0,1.0,2138.0,3,Opposite-sex Couple,v,34.0967,61.2729,7.585,226298,1.7536,6.91,14.25,9.9
S186,Female_016_h,30.0,2.0,4548.0,blue,Reality,3,3,3,1.0,1.0,1942.0,-3,Female,h,52.7456,37.7359,7.2035,198286,33.7434,20.4305,12.5,8.0
S186,Opposite-sex_couple_014_h,31.0,2.0,6908.0,blue,Reality,3,3,3,1.0,1.0,2300.0,3,Opposite-sex Couple,h,31.1618,55.9046,7.1043,170198,19.8601,20.9606,10.35,10.55
S186,Female_002_h,32.0,2.0,4528.0,red,Fiction,6,6,6,1.0,1.0,2304.0,3,Female,h,32.6608,57.3367,7.5265,428384,0.1224,13.5464,13.2,10.3
S186,Female_004_v,33.0,2.0,6699.0,red,Fiction,5,5,5,1.0,1.0,1408.0,3,Female,v,66.2497,74.0566,6.894,218444,2.2245,-3.4638,13.1,9.4
S186,Female_022_h,34.0,2.0,5796.0,red,Fiction,6,6,6,1.0,1.0,1828.0,3,Female,h,56.5834,63.7769,7.3921,216160,15.4662,4.3765,11.55,11.6
S186,Opposite-sex_couple_008_h,35.0,2.0,5087.0,blue,Reality,6,6,6,1.0,1.0,3077.0,2,Opposite-sex Couple,h,16.5249,51.7477,4.6123,119546,6.2003,7.9397,13.7,10.9
S186,Opposite-sex_couple_024_h,36.0,2.0,4611.0,blue,Reality,6,6,6,1.0,1.0,2284.0,3,Opposite-sex Couple,h,63.8212,64.8712,7.414,222144,5.895,13.5005,13.2,11.35
S186,Female_009_h,37.0,2.0,5540.0,red,Fiction,5,4,5,1.0,1.0,2947.0,-3,Female,h,43.0143,73.5278,6.6181,176869,11.341,22.514,12.0,10.25
S186,Female_021_h,38.0,2.0,6623.0,blue,Reality,6,6,6,1.0,1.0,2915.0,3,Female,h,62.5048,59.7605,7.3816,237825,8.8278,10.335,11.4,10.75
S186,Opposite-sex_couple_016_v,39.0,2.0,6962.0,red,Fiction,4,5,6,1.0,1.0,1902.0,3,Opposite-sex Couple,v,25.8676,34.2728,6.9387,193991,15.3644,22.8825,14.1,10.4
S186,Female_023_h,40.0,2.0,7591.0,blue,Reality,5,6,5,1.0,1.0,2665.0,3,Female,h,20.4158,63.53,6.0347,214797,1.8632,7.0814,12.7,9.95
S186,Opposite-sex_couple_013_h,41.0,2.0,4770.0,red,Fiction,5,6,6,1.0,1.0,3336.0,3,Opposite-sex Couple,h,49.891,55.1144,7.6887,265017,3.8167,7.5893,9.4,10.2
S186,Female_015_v,42.0,2.0,8917.0,blue,Reality,4,4,5,1.0,1.0,2789.0,-3,Female,v,65.2389,53.402,7.5418,171124,8.0169,14.7847,13.7,9.6
S186,Opposite-sex_couple_018_h,43.0,2.0,5520.0,red,Fiction,6,6,6,1.0,1.0,2478.0,3,Opposite-sex Couple,h,22.2668,20.2962,6.2371,160728,19.7776,23.7659,10.3,11.2
S186,Female_007_v,44.0,2.0,8770.0,red,Fiction,5,5,5,1.0,1.0,2889.0,-3,Female,v,41.4323,63.1534,7.4045,138365,-1.8072,2.4653,12.95,8.55
S186,Female_019_h,45.0,2.0,7598.0,red,Fiction,4,5,5,1.0,1.0,2274.0,3,Female,h,48.6266,36.3153,7.1507,254048,23.4717,33.9492,11.5,9.15
S186,Opposite-sex_couple_042_h,46.0,2.0,5566.0,blue,Reality,4,4,4,1.0,1.0,5970.0,-1,Opposite-sex Couple,h,49.6856,40.9533,7.2635,179529,29.7156,31.0599,13.55,9.25
S186,Opposite-sex_couple_005_h,47.0,2.0,6875.0,blue,Reality,6,6,6,1.0,1.0,1891.0,3,Opposite-sex Couple,h,71.3527,63.0692,6.9023,129078,0.0823,2.7104,13.25,11.65
S186,Female_011_h,48.0,2.0,5344.0,blue,Reality,5,6,5,1.0,1.0,3053.0,0,Female,h,59.689,56.5583,7.4167,142606,7.0771,8.9211,13.65,9.3
S186,Opposite-sex_couple_015_h,49.0,2.0,7840.0,blue,Reality,5,5,5,1.0,1.0,3337.0,-1,Opposite-sex Couple,h,38.3611,75.1764,7.5486,164951,6.0222,7.7653,13.95,10.4
S186,Female_014_v,50.0,2.0,4960.0,blue,Reality,6,6,6,1.0,1.0,2882.0,-1,Female,v,63.681,76.0052,7.242,187483,5.436,12.6621,12.7,9.25
S072,Opposite-sex_couple_033_v,1.0,2.0,17366.0,red,Reality,3,5,4,1.0,1.0,7801.0,-2,Opposite-sex Couple,v,30.0265,67.3131,6.6794,240015,8.9049,4.1706,13.25,9.75
S072,Female_015_v,2.0,2.0,6840.0,blue,Fiction,4,5,4,1.0,1.0,1631.0,2,Female,v,65.2389,53.402,7.5418,171124,8.0169,14.7847,13.7,9.6
S072,Female_013_h,3.0,2.0,6743.0,red,Reality,4,4,4,1.0,1.0,2086.0,-1,Female,h,21.5101,68.6277,4.6639,137297,3.4277,3.1779,12.1,10.0
S072,Female_017_v,4.0,2.0,7862.0,blue,Fiction,3,3,4,1.0,1.0,3008.0,0,Female,v,30.0066,71.3798,7.3457,261977,11.5136,10.9459,12.5,10.45
S072,Female_018_h,5.0,2.0,9034.0,red,Reality,5,4,5,1.0,1.0,2382.0,-1,Female,h,73.3265,38.1936,6.9748,275330,3.457,12.5327,12.85,10.6
S072,Opposite-sex_couple_008_h,6.0,2.0,6552.0,blue,Fiction,5,5,5,1.0,1.0,2410.0,2,Opposite-sex Couple,h,16.5249,51.7477,4.6123,119546,6.2003,7.9397,13.7,10.9
S072,Female_010_h,7.0,2.0,7027.0,blue,Fiction,3,3,3,1.0,1.0,1695.0,-1,Female,h,19.4425,59.1991,6.5932,175241,9.5547,5.4788,12.45,8.9
S072,Opposite-sex_couple_047_v,8.0,2.0,6758.0,blue,Fiction,3,3,3,1.0,1.0,1969.0,-1,Opposite-sex Couple,v,45.5275,63.8914,7.6091,248159,4.3116,8.5673,13.05,9.5
S072,Opposite-sex_couple_007_h,9.0,2.0,5193.0,red,Reality,3,3,3,1.0,1.0,1384.0,2,Opposite-sex Couple,h,22.6458,57.3072,6.5328,275394,12.4804,7.915,13.3,10.4
S072,Opposite-sex_couple_035_h,10.0,2.0,10174.0,red,Reality,3,4,3,1.0,1.0,2470.0,1,Opposite-sex Couple,h,35.914,62.0043,7.6422,417587,5.8165,15.5562,13.3,9.2
S072,Female_001_h,11.0,2.0,7015.0,blue,Fiction,4,4,4,1.0,1.0,3336.0,-1,Female,h,58.36,49.2428,7.2143,249227,27.1818,10.7039,12.3,8.65
S072,Opposite-sex_couple_016_v,12.0,2.0,5784.0,blue,Fiction,4,4,4,1.0,1.0,2244.0,1,Opposite-sex Couple,v,25.8676,34.2728,6.9387,193991,15.3644,22.8825,14.1,10.4
S072,Female_006_v,13.0,2.0,5574.0,red,Reality,3,3,3,1.0,1.0,1550.0,1,Female,v,63.1318,63.865,7.7492,186016,2.4502,14.6292,12.2,8.95
S072,Female_008_v,14.0,2.0,5692.0,blue,Fiction,3,3,3,1.0,1.0,2051.0,-1,Female,v,52.8173,72.8334,7.4938,155798,1.2756,4.492,11.85,8.45
S072,Female_014_v,15.0,2.0,6163.0,blue,Fiction,4,5,4,1.0,1.0,1340.0,1,Female,v,63.681,76.0052,7.242,187483,5.436,12.6621,12.7,9.25
S072,Female_007_v,16.0,2.0,6654.0,red,Reality,3,2,3,1.0,1.0,3945.0,1,Female,v,41.4323,63.1534,7.4045,138365,-1.8072,2.4653,12.95,8.55
S072,Opposite-sex_couple_009_h,17.0,2.0,5532.0,blue,Fiction,4,4,4,1.0,1.0,1890.0,1,Opposite-sex Couple,h,37.7181,80.8616,7.5798,186883,1.8245,3.7651,13.45,10.05
S072,Female_002_h,18.0,2.0,7470.0,red,Reality,5,4,4,1.0,1.0,2518.0,3,Female,h,32.6608,57.3367,7.5265,428384,0.1224,13.5464,13.2,10.3
S072,Opposite-sex_couple_023_h,19.0,2.0,6563.0,red,Reality,5,4,3,1.0,1.0,2400.0,1,Opposite-sex Couple,h,31.8043,72.0881,7.0663,190248,3.3207,4.7035,13.35,10.8
S072,Opposite-sex_couple_014_h,20.0,2.0,7184.0,red,Reality,6,5,5,1.0,1.0,2503.0,2,Opposite-sex Couple,h,31.1618,55.9046,7.1043,170198,19.8601,20.9606,10.35,10.55
S072,Female_004_v,21.0,2.0,5007.0,red,Reality,4,3,3,1.0,1.0,2105.0,0,Female,v,66.2497,74.0566,6.894,218444,2.2245,-3.4638,13.1,9.4
S072,Opposite-sex_couple_020_h,22.0,2.0,5453.0,red,Reality,4,4,4,1.0,1.0,1659.0,2,Opposite-sex Couple,h,55.3482,59.7471,7.2655,248017,-1.1208,-1.4586,13.3,10.55
S072,Opposite-sex_couple_025_h,23.0,2.0,5362.0,blue,Fiction,6,6,6,1.0,1.0,2840.0,1,Opposite-sex Couple,h,43.3354,49.8527,7.4546,232724,16.8426,26.7224,12.9,11.9
S072,Female_016_h,24.0,2.0,5361.0,blue,Fiction,4,5,5,1.0,1.0,1896.0,-1,Female,h,52.7456,37.7359,7.2035,198286,33.7434,20.4305,12.5,8.0
S072,Female_024_v,25.0,2.0,4914.0,red,Reality,3,3,2,1.0,1.0,2086.0,0,Female,v,19.0471,55.6639,6.7429,165161,4.39,1.2286,12.95,9.35
S072,Opposite-sex_couple_001_v,26.0,2.0,4875.0,red,Reality,3,3,3,1.0,1.0,2614.0,3,Opposite-sex Couple,v,50.9569,69.5985,7.8416,189291,4.8773,15.3441,12.75,8.8
S072,Opposite-sex_couple_048_h,27.0,2.0,5412.0,red,Reality,4,4,4,1.0,1.0,2568.0,1,Opposite-sex Couple,h,17.0385,42.5091,6.3582,135965,6.2044,9.7063,12.5,9.1
S072,Opposite-sex_couple_019_v,28.0,2.0,5472.0,blue,Fiction,3,4,4,1.0,1.0,2137.0,-1,Opposite-sex Couple,v,34.0967,61.2729,7.585,226298,1.7536,6.91,14.25,9.9
S072,Female_009_h,29.0,2.0,6426.0,red,Reality,5,4,5,1.0,1.0,2535.0,0,Female,h,43.0143,73.5278,6.6181,176869,11.341,22.514,12.0,10.25
S072,Opposite-sex_couple_042_h,30.0,2.0,4919.0,blue,Fiction,3,3,3,1.0,1.0,3596.0,2,Opposite-sex Couple,h,49.6856,40.9533,7.2635,179529,29.7156,31.0599,13.55,9.25
S072,Female_003_v,31.0,2.0,5389.0,red,Reality,3,4,3,1.0,1.0,1296.0,-1,Female,v,71.1543,54.6216,7.4449,118707,7.0815,2.7069,12.4,9.95
S072,Opposite-sex_couple_002_h,32.0,2.0,5947.0,blue,Fiction,5,5,4,1.0,1.0,3604.0,2,Opposite-sex Couple,h,60.763,82.3112,7.7336,244927,8.5758,13.1763,13.2,10.55
S072,Female_021_h,33.0,2.0,5572.0,blue,Fiction,5,5,5,1.0,1.0,4089.0,-2,Female,h,62.5048,59.7605,7.3816,237825,8.8278,10.335,11.4,10.75
S072,Female_011_h,34.0,2.0,5761.0,red,Reality,3,3,2,1.0,1.0,1592.0,-1,Female,h,59.689,56.5583,7.4167,142606,7.0771,8.9211,13.65,9.3
S072,Female_020_v,35.0,2.0,5721.0,blue,Fiction,5,4,5,1.0,1.0,1667.0,1,Female,v,50.7307,36.7955,7.0191,173444,4.4367,4.5166,12.25,10.4
S072,Female_022_h,36.0,2.0,9016.0,red,Reality,5,6,4,1.0,1.0,2028.0,-3,Female,h,56.5834,63.7769,7.3921,216160,15.4662,4.3765,11.55,11.6
S072,Opposite-sex_couple_018_h,37.0,2.0,5443.0,red,Reality,6,6,6,1.0,1.0,2844.0,3,Opposite-sex Couple,h,22.2668,20.2962,6.2371,160728,19.7776,23.7659,10.3,11.2
S072,Female_005_v,38.0,2.0,5984.0,red,Reality,4,4,5,1.0,1.0,1553.0,1,Female,v,44.8525,70.3649,7.6863,270082,11.7249,10.9722,10.8,10.25
S072,Opposite-sex_couple_012_h,39.0,2.0,5533.0,blue,Fiction,5,5,5,1.0,1.0,2651.0,2,Opposite-sex Couple,h,51.0648,48.3001,7.4745,174501,18.6779,27.0762,11.55,11.65
S072,Opposite-sex_couple_011_h,40.0,2.0,5227.0,red,Reality,4,3,3,1.0,1.0,2483.0,2,Opposite-sex Couple,h,52.5903,78.465,7.7598,283429,6.8592,8.7999,13.65,9.1
S072,Opposite-sex_couple_015_h,41.0,2.0,6170.0,blue,Fiction,4,4,4,1.0,1.0,1596.0,1,Opposite-sex Couple,h,38.3611,75.1764,7.5486,164951,6.0222,7.7653,13.95,10.4
S072,Female_025_h,42.0,2.0,9431.0,blue,Fiction,4,3,4,1.0,1.0,2435.0,-1,Female,h,73.3617,60.3781,7.5139,216382,5.3208,0.3346,12.35,9.0
S072,Opposite-sex_couple_013_h,43.0,2.0,4880.0,blue,Fiction,4,3,3,1.0,1.0,2446.0,-1,Opposite-sex Couple,h,49.891,55.1144,7.6887,265017,3.8167,7.5893,9.4,10.2
S072,Opposite-sex_couple_022_v,44.0,2.0,4604.0,red,Reality,3,3,3,1.0,1.0,2054.0,-1,Opposite-sex Couple,v,46.9156,64.2866,7.61,253664,5.0465,30.4134,12.35,8.8
S072,Female_019_h,45.0,2.0,5185.0,red,Reality,4,3,3,1.0,1.0,1366.0,-1,Female,h,48.6266,36.3153,7.1507,254048,23.4717,33.9492,11.5,9.15
S072,Opposite-sex_couple_024_h,46.0,2.0,5078.0,red,Reality,5,4,4,1.0,1.0,3957.0,0,Opposite-sex Couple,h,63.8212,64.8712,7.414,222144,5.895,13.5005,13.2,11.35
S072,Opposite-sex_couple_017_v,47.0,2.0,5305.0,red,Reality,4,4,3,1.0,1.0,1121.0,0,Opposite-sex Couple,v,23.5619,43.2164,6.988,199604,6.3891,5.0569,13.75,11.35
S072,Female_012_v,48.0,2.0,4569.0,blue,Fiction,3,3,4,1.0,1.0,1884.0,2,Female,v,57.6698,65.0532,7.8207,207243,4.5309,8.2501,12.75,9.3
S072,Female_023_h,49.0,2.0,7407.0,blue,Fiction,5,5,5,1.0,1.0,1614.0,1,Female,h,20.4158,63.53,6.0347,214797,1.8632,7.0814,12.7,9.95
S072,Opposite-sex_couple_005_h,50.0,2.0,7734.0,blue,Fiction,6,6,6,1.0,1.0,2544.0,3,Opposite-sex Couple,h,71.3527,63.0692,6.9023,129078,0.0823,2.7104,13.25,11.65
S235,Opposite-sex_couple_008_h,1.0,2.0,7435.0,red,Reality,3,3,3,1.0,1.0,1397.0,-1,Opposite-sex Couple,h,16.5249,51.7477,4.6123,119546,6.2003,7.9397,13.7,10.9
S235,Female_008_v,2.0,2.0,4341.0,red,Reality,3,3,3,1.0,1.0,2134.0,-1,Female,v,52.8173,72.8334,7.4938,155798,1.2756,4.492,11.85,8.45
S235,Female_003_v,3.0,2.0,4541.0,green,Fiction,2,2,2,1.0,1.0,1548.0,2,Female,v,71.1543,54.6216,7.4449,118707,7.0815,2.7069,12.4,9.95
S235,Opposite-sex_couple_024_h,4.0,2.0,3106.0,green,Fiction,1,1,1,1.0,1.0,1351.0,-1,Opposite-sex Couple,h,63.8212,64.8712,7.414,222144,5.895,13.5005,13.2,11.35
S235,Opposite-sex_couple_011_h,5.0,2.0,2976.0,red,Reality,1,1,1,1.0,1.0,1364.0,-2,Opposite-sex Couple,h,52.5903,78.465,7.7598,283429,6.8592,8.7999,13.65,9.1
S235,Opposite-sex_couple_022_v,6.0,2.0,3094.0,green,Fiction,2,2,2,1.0,1.0,922.0,1,Opposite-sex Couple,v,46.9156,64.2866,7.61,253664,5.0465,30.4134,12.35,8.8
S235,Female_016_h,7.0,2.0,5836.0,green,Fiction,2,3,3,1.0,1.0,1246.0,1,Female,h,52.7456,37.7359,7.2035,198286,33.7434,20.4305,12.5,8.0
S235,Female_007_v,8.0,2.0,4534.0,green,Fiction,2,3,3,1.0,1.0,1392.0,0,Female,v,41.4323,63.1534,7.4045,138365,-1.8072,2.4653,12.95,8.55
S235,Opposite-sex_couple_012_h,9.0,2.0,3287.0,red,Reality,0,0,0,1.0,1.0,1540.0,-2,Opposite-sex Couple,h,51.0648,48.3001,7.4745,174501,18.6779,27.0762,11.55,11.65
S235,Female_021_h,10.0,2.0,5903.0,red,Reality,2,2,2,1.0,1.0,2007.0,1,Female,h,62.5048,59.7605,7.3816,237825,8.8278,10.335,11.4,10.75
S235,Female_004_v,11.0,2.0,4592.0,red,Reality,2,3,3,1.0,1.0,1019.0,-1,Female,v,66.2497,74.0566,6.894,218444,2.2245,-3.4638,13.1,9.4
S235,Female_020_v,12.0,2.0,4451.0,red,Reality,2,2,1,1.0,1.0,1118.0,1,Female,v,50.7307,36.7955,7.0191,173444,4.4367,4.5166,12.25,10.4
S235,Female_015_v,13.0,2.0,3815.0,red,Reality,2,3,3,1.0,1.0,1308.0,1,Female,v,65.2389,53.402,7.5418,171124,8.0169,14.7847,13.7,9.6
S235,Opposite-sex_couple_014_h,14.0,2.0,3619.0,green,Fiction,1,1,1,1.0,1.0,1497.0,1,Opposite-sex Couple,h,31.1618,55.9046,7.1043,170198,19.8601,20.9606,10.35,10.55
S235,Opposite-sex_couple_015_h,15.0,2.0,3615.0,red,Reality,1,2,3,1.0,1.0,2088.0,2,Opposite-sex Couple,h,38.3611,75.1764,7.5486,164951,6.0222,7.7653,13.95,10.4
S235,Female_012_v,16.0,2.0,3757.0,red,Reality,3,3,4,1.0,1.0,1111.0,1,Female,v,57.6698,65.0532,7.8207,207243,4.5309,8.2501,12.75,9.3
S235,Opposite-sex_couple_009_h,17.0,2.0,4579.0,red,Reality,2,2,2,1.0,1.0,1224.0,-1,Opposite-sex Couple,h,37.7181,80.8616,7.5798,186883,1.8245,3.7651,13.45,10.05
S235,Opposite-sex_couple_020_h,18.0,2.0,3944.0,green,Fiction,1,1,1,1.0,1.0,1076.0,1,Opposite-sex Couple,h,55.3482,59.7471,7.2655,248017,-1.1208,-1.4586,13.3,10.55
S235,Female_010_h,19.0,2.0,3631.0,green,Fiction,1,2,2,1.0,1.0,1711.0,-1,Female,h,19.4425,59.1991,6.5932,175241,9.5547,5.4788,12.45,8.9
S235,Opposite-sex_couple_013_h,20.0,2.0,4482.0,green,Fiction,0,0,0,1.0,1.0,2227.0,-1,Opposite-sex Couple,h,49.891,55.1144,7.6887,265017,3.8167,7.5893,9.4,10.2
S235,Opposite-sex_couple_016_v,21.0,2.0,2834.0,red,Reality,0,0,0,1.0,1.0,1190.0,2,Opposite-sex Couple,v,25.8676,34.2728,6.9387,193991,15.3644,22.8825,14.1,10.4
S235,Opposite-sex_couple_019_v,22.0,2.0,4831.0,red,Reality,0,1,1,1.0,1.0,1236.0,-2,Opposite-sex Couple,v,34.0967,61.2729,7.585,226298,1.7536,6.91,14.25,9.9
S235,Female_013_h,23.0,2.0,3549.0,red,Reality,0,0,0,1.0,1.0,1134.0,1,Female,h,21.5101,68.6277,4.6639,137297,3.4277,3.1779,12.1,10.0
S235,Female_009_h,24.0,2.0,4181.0,red,Reality,2,3,3,1.0,1.0,983.0,1,Female,h,43.0143,73.5278,6.6181,176869,11.341,22.514,12.0,10.25
S235,Female_025_h,25.0,2.0,3169.0,green,Fiction,1,2,3,1.0,1.0,1213.0,-2,Female,h,73.3617,60.3781,7.5139,216382,5.3208,0.3346,12.35,9.0
S235,Female_017_v,26.0,2.0,3541.0,red,Reality,1,1,1,1.0,1.0,1364.0,1,Female,v,30.0066,71.3798,7.3457,261977,11.5136,10.9459,12.5,10.45
S235,Opposite-sex_couple_023_h,27.0,2.0,3218.0,red,Reality,1,1,1,1.0,1.0,1028.0,1,Opposite-sex Couple,h,31.8043,72.0881,7.0663,190248,3.3207,4.7035,13.35,10.8
S235,Opposite-sex_couple_042_h,28.0,2.0,3641.0,green,Fiction,0,1,2,1.0,1.0,995.0,1,Opposite-sex Couple,h,49.6856,40.9533,7.2635,179529,29.7156,31.0599,13.55,9.25
S235,Female_014_v,29.0,2.0,3896.0,red,Reality,0,1,2,1.0,1.0,3407.0,-2,Female,v,63.681,76.0052,7.242,187483,5.436,12.6621,12.7,9.25
S235,Opposite-sex_couple_002_h,30.0,2.0,3423.0,red,Reality,0,1,1,1.0,1.0,1101.0,1,Opposite-sex Couple,h,60.763,82.3112,7.7336,244927,8.5758,13.1763,13.2,10.55
S235,Female_018_h,31.0,2.0,3709.0,green,Fiction,1,2,2,1.0,1.0,1290.0,1,Female,h,73.3265,38.1936,6.9748,275330,3.457,12.5327,12.85,10.6
S235,Opposite-sex_couple_005_h,32.0,2.0,3696.0,green,Fiction,0,0,0,1.0,1.0,1395.0,0,Opposite-sex Couple,h,71.3527,63.0692,6.9023,129078,0.0823,2.7104,13.25,11.65
S235,Opposite-sex_couple_001_v,33.0,2.0,3529.0,red,Reality,1,2,2,1.0,1.0,1100.0,1,Opposite-sex Couple,v,50.9569,69.5985,7.8416,189291,4.8773,15.3441,12.75,8.8
S235,Opposite-sex_couple_025_h,34.0,2.0,3430.0,green,Fiction,1,1,1,1.0,1.0,1169.0,-1,Opposite-sex Couple,h,43.3354,49.8527,7.4546,232724,16.8426,26.7224,12.9,11.9
S235,Female_001_h,35.0,2.0,3762.0,green,Fiction,2,2,3,1.0,1.0,1797.0,1,Female,h,58.36,49.2428,7.2143,249227,27.1818,10.7039,12.3,8.65
S235,Opposite-sex_couple_017_v,36.0,2.0,4299.0,green,Fiction,0,2,2,1.0,1.0,1266.0,1,Opposite-sex Couple,v,23.5619,43.2164,6.988,199604,6.3891,5.0569,13.75,11.35
S235,Female_019_h,37.0,2.0,3760.0,red,Reality,2,3,3,1.0,1.0,1352.0,1,Female,h,48.6266,36.3153,7.1507,254048,23.4717,33.9492,11.5,9.15
S235,Female_006_v,38.0,2.0,3366.0,green,Fiction,1,2,2,1.0,1.0,1166.0,1,Female,v,63.1318,63.865,7.7492,186016,2.4502,14.6292,12.2,8.95
S235,Female_011_h,39.0,2.0,3100.0,green,Fiction,1,2,2,1.0,1.0,1520.0,-1,Female,h,59.689,56.5583,7.4167,142606,7.0771,8.9211,13.65,9.3
S235,Female_022_h,40.0,2.0,2853.0,green,Fiction,0,0,0,1.0,1.0,1538.0,-2,Female,h,56.5834,63.7769,7.3921,216160,15.4662,4.3765,11.55,11.6
S235,Female_024_v,41.0,2.0,2935.0,red,Reality,0,0,0,1.0,1.0,1238.0,1,Female,v,19.0471,55.6639,6.7429,165161,4.39,1.2286,12.95,9.35
S235,Opposite-sex_couple_048_h,42.0,2.0,2645.0,green,Fiction,0,0,0,1.0,1.0,1372.0,-1,Opposite-sex Couple,h,17.0385,42.5091,6.3582,135965,6.2044,9.7063,12.5,9.1
S235,Female_023_h,43.0,2.0,3462.0,red,Reality,1,2,2,1.0,1.0,1128.0,-2,Female,h,20.4158,63.53,6.0347,214797,1.8632,7.0814,12.7,9.95
S235,Opposite-sex_couple_047_v,44.0,2.0,3568.0,red,Reality,0,0,0,1.0,1.0,1386.0,-1,Opposite-sex Couple,v,45.5275,63.8914,7.6091,248159,4.3116,8.5673,13.05,9.5
S235,Opposite-sex_couple_018_h,45.0,2.0,3460.0,green,Fiction,0,0,0,1.0,1.0,1527.0,0,Opposite-sex Couple,h,22.2668,20.2962,6.2371,160728,19.7776,23.7659,10.3,11.2
S235,Female_002_h,46.0,2.0,3472.0,green,Fiction,0,1,1,1.0,1.0,1536.0,1,Female,h,32.6608,57.3367,7.5265,428384,0.1224,13.5464,13.2,10.3
S235,Opposite-sex_couple_035_h,47.0,2.0,2844.0,red,Reality,0,0,0,1.0,1.0,1183.0,1,Opposite-sex Couple,h,35.914,62.0043,7.6422,417587,5.8165,15.5562,13.3,9.2
S235,Female_005_v,48.0,2.0,2910.0,green,Fiction,0,0,0,1.0,1.0,1147.0,-1,Female,v,44.8525,70.3649,7.6863,270082,11.7249,10.9722,10.8,10.25
S235,Opposite-sex_couple_033_v,49.0,2.0,2711.0,green,Fiction,0,0,0,1.0,1.0,2578.0,-1,Opposite-sex Couple,v,30.0265,67.3131,6.6794,240015,8.9049,4.1706,13.25,9.75
S235,Opposite-sex_couple_007_h,50.0,2.0,2795.0,red,Reality,0,0,0,1.0,1.0,1098.0,1,Opposite-sex Couple,h,22.6458,57.3072,6.5328,275394,12.4804,7.915,13.3,10.4
S241,Male_011_v,1.0,2.0,14983.0,red,Reality,3,4,3,1.0,1.0,1435.0,-3,Male,v,40.2007,66.7949,7.44,265717,8.1808,11.1864,10.0,7.65
S241,Male_017_v,2.0,2.0,10753.0,red,Reality,1,2,1,1.0,1.0,3354.0,-1,Male,v,31.538,56.3546,7.2051,276400,5.2385,7.6499,8.25,8.7
S241,Opposite-sex_couple_017_v,3.0,2.0,11137.0,red,Reality,2,4,3,1.0,1.0,1501.0,-3,Opposite-sex Couple,v,23.5619,43.2164,6.988,199604,6.3891,5.0569,13.75,11.35
S241,Male_024_h,4.0,2.0,11276.0,red,Reality,2,4,2,1.0,1.0,1361.0,-3,Male,h,35.3457,44.1672,7.3268,201056,11.8279,13.8626,11.1,7.75
S241,Opposite-sex_couple_005_h,5.0,2.0,13060.0,red,Reality,1,4,0,1.0,1.0,4347.0,-2,Opposite-sex Couple,h,71.3527,63.0692,6.9023,129078,0.0823,2.7104,13.25,11.65
S241,Opposite-sex_couple_020_h,6.0,2.0,6878.0,red,Reality,3,5,3,1.0,1.0,1135.0,-3,Opposite-sex Couple,h,55.3482,59.7471,7.2655,248017,-1.1208,-1.4586,13.3,10.55
S241,Male_007_h,7.0,2.0,3988.0,green,Fiction,0,1,0,1.0,1.0,3925.0,1,Male,h,50.1922,54.4775,7.6965,469938,3.1066,14.9059,8.25,8.15
S241,Opposite-sex_couple_024_h,8.0,2.0,7448.0,green,Fiction,0,2,0,1.0,1.0,2255.0,-1,Opposite-sex Couple,h,63.8212,64.8712,7.414,222144,5.895,13.5005,13.2,11.35
S241,Opposite-sex_couple_018_h,9.0,2.0,6859.0,green,Fiction,0,2,1,1.0,1.0,1763.0,-3,Opposite-sex Couple,h,22.2668,20.2962,6.2371,160728,19.7776,23.7659,10.3,11.2
S241,Opposite-sex_couple_023_h,10.0,2.0,4344.0,green,Fiction,1,3,2,1.0,1.0,3192.0,-3,Opposite-sex Couple,h,31.8043,72.0881,7.0663,190248,3.3207,4.7035,13.35,10.8
S241,Male_001_v,11.0,2.0,4566.0,green,Fiction,0,1,1,1.0,1.0,2290.0,2,Male,v,60.0397,72.0716,7.7395,265152,4.5447,6.449,9.95,8.25
S241,Male_018_v,12.0,2.0,11712.0,red,Reality,1,3,2,1.0,1.0,1822.0,3,Male,v,57.09,71.0229,7.2597,175978,7.6306,11.6477,9.7,7.1
S241,Opposite-sex_couple_007_h,13.0,2.0,6687.0,green,Fiction,1,3,3,1.0,1.0,2120.0,2,Opposite-sex Couple,h,22.6458,57.3072,6.5328,275394,12.4804,7.915,13.3,10.4
S241,Male_021_h,14.0,2.0,4996.0,red,Reality,0,2,0,1.0,1.0,3666.0,-2,Male,h,57.763,37.3776,7.1043,326961,2.6508,1.566,9.15,7.75
S241,Opposite-sex_couple_048_h,15.0,2.0,11151.0,red,Reality,1,3,3,1.0,1.0,2611.0,3,Opposite-sex Couple,h,17.0385,42.5091,6.3582,135965,6.2044,9.7063,12.5,9.1
S241,Male_005_v,16.0,2.0,6233.0,green,Fiction,0,0,0,1.0,1.0,1965.0,0,Male,v,19.09,43.8873,6.7516,170084,11.4089,17.2027,8.7,9.15
S241,Opposite-sex_couple_035_h,17.0,2.0,17939.0,green,Fiction,2,2,3,1.0,1.0,1142.0,-3,Opposite-sex Couple,h,35.914,62.0043,7.6422,417587,5.8165,15.5562,13.3,9.2
S241,Opposite-sex_couple_033_v,18.0,2.0,6537.0,red,Reality,1,3,2,1.0,1.0,2175.0,2,Opposite-sex Couple,v,30.0265,67.3131,6.6794,240015,8.9049,4.1706,13.25,9.75
S241,Opposite-sex_couple_047_v,19.0,2.0,9207.0,red,Reality,0,3,2,1.0,1.0,1777.0,1,Opposite-sex Couple,v,45.5275,63.8914,7.6091,248159,4.3116,8.5673,13.05,9.5
S241,Opposite-sex_couple_002_h,20.0,2.0,8906.0,green,Fiction,3,4,3,1.0,1.0,1213.0,-3,Opposite-sex Couple,h,60.763,82.3112,7.7336,244927,8.5758,13.1763,13.2,10.55
S241,Opposite-sex_couple_025_h,21.0,2.0,10896.0,green,Fiction,0,0,0,1.0,1.0,2840.0,1,Opposite-sex Couple,h,43.3354,49.8527,7.4546,232724,16.8426,26.7224,12.9,11.9
S241,Male_025_v,22.0,2.0,4662.0,green,Fiction,0,2,1,1.0,1.0,7573.0,2,Male,v,29.0652,60.357,6.8769,267633,2.7805,-0.966,7.95,7.2
S241,Opposite-sex_couple_022_v,23.0,2.0,7990.0,red,Reality,1,2,3,1.0,1.0,1731.0,2,Opposite-sex Couple,v,46.9156,64.2866,7.61,253664,5.0465,30.4134,12.35,8.8
S241,Male_016_v,24.0,2.0,10391.0,green,Fiction,2,3,2,1.0,1.0,1190.0,-3,Male,v,50.2338,45.7527,7.4858,216444,12.4281,14.1233,9.35,9.05
S241,Opposite-sex_couple_015_h,25.0,2.0,7016.0,red,Reality,3,4,3,1.0,1.0,1602.0,-2,Opposite-sex Couple,h,38.3611,75.1764,7.5486,164951,6.0222,7.7653,13.95,10.4
S241,Opposite-sex_couple_014_h,26.0,2.0,5446.0,green,Fiction,0,4,0,1.0,1.0,3115.0,0,Opposite-sex Couple,h,31.1618,55.9046,7.1043,170198,19.8601,20.9606,10.35,10.55
S241,Male_013_v,27.0,2.0,4026.0,red,Reality,1,3,1,1.0,1.0,2179.0,-2,Male,v,44.0686,86.7349,7.4514,293448,11.5375,24.8859,9.95,9.05
S241,Opposite-sex_couple_042_h,28.0,2.0,5551.0,red,Reality,0,2,4,1.0,1.0,3547.0,-1,Opposite-sex Couple,h,49.6856,40.9533,7.2635,179529,29.7156,31.0599,13.55,9.25
S241,Male_022_v,29.0,2.0,7088.0,red,Reality,2,3,1,1.0,1.0,1194.0,-3,Male,v,43.1253,52.5585,7.6091,257785,2.6258,12.346,7.45,10.6
S241,Opposite-sex_couple_009_h,30.0,2.0,4889.0,red,Reality,0,0,0,1.0,1.0,1349.0,-3,Opposite-sex Couple,h,37.7181,80.8616,7.5798,186883,1.8245,3.7651,13.45,10.05
S241,Male_009_v,31.0,2.0,6319.0,red,Reality,0,3,3,1.0,1.0,1218.0,-3,Male,v,43.2111,60.8704,7.489,271374,13.4711,15.6762,10.6,7.7
S241,Male_015_v,32.0,2.0,5031.0,green,Fiction,3,3,4,1.0,1.0,2230.0,-1,Male,v,20.0917,76.4888,3.8868,167601,1.4845,8.8924,11.4,6.8
S241,Male_008_v,33.0,2.0,4665.0,green,Fiction,0,1,0,1.0,1.0,1292.0,-3,Male,v,49.8422,61.1046,7.609,207491,14.1516,16.1108,9.15,9.15
S241,Opposite-sex_couple_016_v,34.0,2.0,4857.0,red,Reality,1,3,2,1.0,1.0,1069.0,-3,Opposite-sex Couple,v,25.8676,34.2728,6.9387,193991,15.3644,22.8825,14.1,10.4
S241,Male_002_v,35.0,2.0,5469.0,red,Reality,0,3,3,1.0,1.0,1256.0,3,Male,v,42.743,65.8985,7.7155,221793,11.6582,-3.6073,10.0,7.5
