Participant,Stimulus,Trial_Order_Phase1,Trial_Duration_Phase1,Rating_RT_Phase1,Cue_Color,Condition,Beauty,Attractiveness,Trustworthiness,Trial_Order_Phase2,Trial_Duration_Phase2,Rating_RT_Phase2,Realness
S045,NF-1049,1.0,2.0,8042.0,green,Reality,4,4,4,1.0,1.0,1453.0,-1
S045,NF-1076,2.0,2.0,6813.0,green,Reality,5,5,4,1.0,1.0,1753.0,2
S045,NF-1066,3.0,2.0,5260.0,green,Reality,4,5,5,1.0,1.0,1912.0,-2
S045,NF-1037,4.0,2.0,6431.0,blue,Fiction,4,4,4,1.0,1.0,1644.0,-2
S045,NF-1108,5.0,2.0,7810.0,blue,Fiction,5,5,4,1.0,1.0,1749.0,-1
S045,NF-1009,6.0,2.0,11376.0,green,Reality,4,4,5,1.0,1.0,1898.0,1
S045,NF-1075,7.0,2.0,7341.0,green,Reality,2,2,2,1.0,1.0,2014.0,-2
S045,NF-1060,8.0,2.0,7442.0,blue,Fiction,3,2,4,1.0,1.0,2056.0,2
S045,NF-1057,9.0,2.0,7503.0,blue,Fiction,2,2,2,1.0,1.0,2120.0,-2
S045,NF-1082,10.0,2.0,5179.0,blue,Fiction,3,3,4,1.0,1.0,1456.0,-3
S045,NF-1094,11.0,2.0,6323.0,blue,Fiction,4,4,4,1.0,1.0,1403.0,-2
S045,NF-1084,12.0,2.0,6404.0,green,Reality,3,3,3,1.0,1.0,3758.0,2
S045,NF-1043,13.0,2.0,5035.0,blue,Fiction,3,3,3,1.0,1.0,1606.0,-3
S045,NF-1086,14.0,2.0,6241.0,blue,Fiction,4,5,5,1.0,1.0,1551.0,1
S045,NF-1097,15.0,2.0,4754.0,green,Reality,3,2,3,1.0,1.0,7678.0,-1
S045,NF-1003,16.0,2.0,6517.0,green,Reality,3,4,4,1.0,1.0,1455.0,2
S045,NF-1020,17.0,2.0,11216.0,green,Reality,4,3,3,1.0,1.0,1718.0,2
S045,NM-1104,18.0,2.0,4583.0,green,Reality,2,2,2,1.0,1.0,4356.0,1
S045,NF-1024,19.0,2.0,5668.0,blue,Fiction,3,3,3,1.0,1.0,1316.0,-3
S045,NF-1098,20.0,2.0,4936.0,blue,Fiction,4,3,3,1.0,1.0,1595.0,-2
S045,NF-1021,21.0,2.0,4511.0,green,Reality,4,3,4,1.0,1.0,1860.0,-2
S045,NM-1102,22.0,2.0,7049.0,blue,Fiction,2,2,2,1.0,1.0,1828.0,-1
S045,NM-1029,23.0,2.0,6833.0,blue,Fiction,3,4,4,1.0,1.0,4311.0,-1
S045,NF-1081,24.0,2.0,6858.0,green,Reality,4,3,3,1.0,1.0,1468.0,-3
S045,NF-1062,25.0,2.0,5660.0,green,Reality,4,3,4,1.0,1.0,1491.0,2
S045,NF-1001,26.0,2.0,4011.0,blue,Fiction,2,2,3,1.0,1.0,2399.0,0
S045,NM-1091,27.0,2.0,4451.0,blue,Fiction,2,3,3,1.0,1.0,2680.0,-2
S045,NF-1093,28.0,2.0,4088.0,green,Reality,3,3,4,1.0,1.0,3215.0,1
S045,NM-1010,29.0,2.0,4897.0,blue,Fiction,2,2,2,1.0,1.0,1844.0,-2
S045,NF-1016,30.0,2.0,6285.0,green,Reality,4,4,4,1.0,1.0,6230.0,1
S045,NM-1070,31.0,2.0,4458.0,green,Reality,2,2,4,1.0,1.0,1955.0,1
S045,NF-1018,32.0,2.0,5408.0,green,Reality,4,4,4,1.0,1.0,1846.0,-1
S045,NF-1067,33.0,2.0,3604.0,blue,Fiction,2,2,3,1.0,1.0,9364.0,0
S045,NF-1008,34.0,2.0,5051.0,green,Reality,4,3,4,1.0,1.0,3003.0,-2
S045,NF-1028,35.0,2.0,6963.0,blue,Fiction,3,3,4,1.0,1.0,3572.0,2
S045,NF-1072,36.0,2.0,5193.0,blue,Fiction,4,5,4,1.0,1.0,3549.0,-2
S045,NF-1089,37.0,2.0,5972.0,blue,Fiction,3,3,4,1.0,1.0,1679.0,-2
S045,NF-1051,38.0,2.0,3541.0,blue,Fiction,2,2,3,1.0,1.0,2350.0,1
S045,NF-1059,39.0,2.0,3421.0,blue,Fiction,3,3,3,1.0,1.0,4324.0,1
S045,NF-1039,40.0,2.0,4287.0,blue,Fiction,2,2,3,1.0,1.0,1885.0,-2
S045,NM-1033,41.0,2.0,3873.0,blue,Fiction,1,1,3,1.0,1.0,1619.0,-3
S045,NF-1022,42.0,2.0,5676.0,blue,Fiction,4,4,5,1.0,1.0,3249.0,0
S045,NF-1026,43.0,2.0,3883.0,blue,Fiction,2,2,3,1.0,1.0,1338.0,-3
S045,NF-1025,44.0,2.0,4254.0,green,Reality,3,3,4,1.0,1.0,2849.0,-1
S045,NF-1012,45.0,2.0,6338.0,blue,Fiction,3,3,4,1.0,1.0,1358.0,-3
S045,NM-1064,46.0,2.0,3876.0,green,Reality,2,2,3,1.0,1.0,3395.0,0
S045,NF-1034,47.0,2.0,3415.0,green,Reality,2,2,4,1.0,1.0,1754.0,-1
S045,NF-1023,48.0,2.0,5533.0,green,Reality,3,4,4,1.0,1.0,2861.0,-1
S045,NM-1092,49.0,2.0,4858.0,blue,Fiction,2,2,3,1.0,1.0,1908.0,-2
S045,NF-1087,50.0,2.0,4029.0,green,Reality,2,2,3,1.0,1.0,2037.0,-2
S045,NM-1038,51.0,2.0,5071.0,green,Reality,4,4,4,1.0,1.0,1452.0,2
S045,NM-1055,52.0,2.0,3095.0,green,Reality,2,2,4,1.0,1.0,1500.0,-2
S045,NM-1035,53.0,2.0,4944.0,green,Reality,3,4,4,1.0,1.0,3064.0,1
S045,NF-1101,54.0,2.0,6011.0,blue,Fiction,3,3,3,1.0,1.0,1450.0,2
S045,NF-1045,55.0,2.0,5231.0,green,Reality,5,5,4,1.0,1.0,2565.0,1
S045,NF-1063,56.0,2.0,5464.0,blue,Fiction,5,5,4,1.0,1.0,2819.0,-1
S045,NF-1015,57.0,2.0,5944.0,green,Reality,3,3,5,1.0,1.0,2215.0,-1
S045,NF-1050,58.0,2.0,5455.0,green,Reality,4,3,4,1.0,1.0,1649.0,1
S045,NF-1053,59.0,2.0,4198.0,blue,Fiction,3,3,3,1.0,1.0,1601.0,1
S045,NF-1046,60.0,2.0,4660.0,green,Reality,3,4,4,1.0,1.0,1866.0,-2
S045,NF-1095,61.0,2.0,5369.0,blue,Fiction,3,3,3,1.0,1.0,1445.0,-2
S045,NF-1109,62.0,2.0,3224.0,blue,Fiction,2,2,3,1.0,1.0,1562.0,-1
S045,NF-1077,63.0,2.0,7734.0,blue,Fiction,3,3,4,1.0,1.0,1616.0,-2
S045,NF-1054,64.0,2.0,4801.0,blue,Fiction,3,4,4,1.0,1.0,2465.0,-3
S045,NF-1004,65.0,2.0,6163.0,blue,Fiction,3,3,5,1.0,1.0,1478.0,2
S045,NF-1065,66.0,2.0,5073.0,blue,Fiction,4,5,4,1.0,1.0,2202.0,-2
S045,NF-1107,67.0,2.0,10003.0,green,Reality,4,3,4,1.0,1.0,1243.0,2
S045,NM-1011,68.0,2.0,6562.0,green,Reality,4,4,4,1.0,1.0,1555.0,-2
S045,NF-1068,69.0,2.0,4693.0,green,Reality,4,5,5,1.0,1.0,1765.0,-1
S045,NF-1031,70.0,2.0,4297.0,green,Reality,3,3,4,1.0,1.0,1371.0,-2
S045,NF-1047,71.0,2.0,3258.0,green,Reality,3,3,3,1.0,1.0,1642.0,-1
S045,NF-1002,72.0,2.0,4019.0,blue,Fiction,2,2,3,1.0,1.0,1593.0,-3
S045,NF-1036,73.0,2.0,5130.0,blue,Fiction,2,2,3,1.0,1.0,1517.0,-3
S045,NF-1088,74.0,2.0,5084.0,blue,Fiction,3,3,3,1.0,1.0,1875.0,-2
S045,NF-1100,75.0,2.0,4259.0,green,Reality,4,4,4,1.0,1.0,2477.0,-1
S045,NF-1013,76.0,2.0,3504.0,blue,Fiction,3,3,3,1.0,1.0,1481.0,0
S045,NF-1099,77.0,2.0,5200.0,blue,Fiction,4,4,4,1.0,1.0,3241.0,-2
S045,NF-1048,78.0,2.0,4096.0,green,Reality,3,3,4,1.0,1.0,2183.0,-3
S045,NF-1017,79.0,2.0,3476.0,blue,Fiction,3,3,3,1.0,1.0,2335.0,-1
S045,NF-1085,80.0,2.0,3434.0,blue,Fiction,3,3,4,1.0,1.0,1742.0,-1
S045,NF-1105,81.0,2.0,4255.0,green,Reality,4,5,5,1.0,1.0,1633.0,1
S045,NM-1027,82.0,2.0,4358.0,blue,Fiction,3,3,4,1.0,1.0,1739.0,-1
S045,NF-1069,83.0,2.0,3404.0,blue,Fiction,2,2,3,1.0,1.0,2606.0,1
S045,NF-1030,84.0,2.0,3840.0,green,Reality,3,4,4,1.0,1.0,2556.0,-1
S045,NM-1090,85.0,2.0,5043.0,green,Reality,3,3,4,1.0,1.0,1823.0,1
S045,NF-1005,86.0,2.0,3631.0,blue,Fiction,3,3,4,1.0,1.0,2723.0,0
S045,NF-1106,87.0,2.0,3701.0,green,Reality,3,3,4,1.0,1.0,3763.0,2
S045,NF-1061,88.0,2.0,3475.0,blue,Fiction,4,4,4,1.0,1.0,2602.0,1
S045,NF-1103,89.0,2.0,5139.0,green,Reality,3,3,4,1.0,1.0,1593.0,-3
S045,NF-1056,90.0,2.0,3485.0,green,Reality,3,3,4,1.0,1.0,1773.0,1
S045,NM-1058,91.0,2.0,3806.0,green,Reality,4,5,5,1.0,1.0,1186.0,3
S045,NM-1074,92.0,2.0,4031.0,blue,Fiction,4,4,4,1.0,1.0,1291.0,2
S045,NF-1083,93.0,2.0,3036.0,green,Reality,3,3,4,1.0,1.0,2651.0,-1
S045,NF-1041,94.0,2.0,2971.0,blue,Fiction,3,3,4,1.0,1.0,2269.0,-2
S045,NF-1014,95.0,2.0,5015.0,green,Reality,3,3,5,1.0,1.0,1668.0,-2
S045,NF-1040,96.0,2.0,3217.0,green,Reality,3,3,4,1.0,1.0,2457.0,-2
S045,NM-1007,97.0,2.0,3899.0,blue,Fiction,2,2,3,1.0,1.0,1870.0,-1
S045,NF-1071,98.0,2.0,3333.0,green,Reality,3,3,4,1.0,1.0,1131.0,-3
S045,NM-1019,99.0,2.0,4384.0,blue,Fiction,3,3,3,1.0,1.0,1392.0,-3
S045,NF-1073,100.0,2.0,4202.0,green,Reality,4,4,4,1.0,1.0,2990.0,-2
S045,NF-1042,101.0,2.0,6884.0,green,Reality,4,4,4,1.0,1.0,2111.0,-2
S045,NF-1032,102.0,2.0,3102.0,green,Reality,3,3,4,1.0,1.0,1304.0,2
S045,NF-1096,103.0,2.0,3423.0,green,Reality,3,3,4,1.0,1.0,1887.0,1
S045,NF-1080,104.0,2.0,5173.0,green,Reality,3,4,4,1.0,1.0,1955.0,1
S045,NF-1110,105.0,2.0,4460.0,green,Reality,3,4,5,1.0,1.0,2031.0,2
S045,NF-1079,106.0,2.0,3298.0,blue,Fiction,2,2,3,1.0,1.0,1836.0,-2
S045,NF-1006,107.0,2.0,3603.0,blue,Fiction,2,2,3,1.0,1.0,1472.0,-3
S045,NM-1052,108.0,2.0,3627.0,green,Reality,2,2,4,1.0,1.0,2300.0,2
S045,NF-1044,109.0,2.0,5815.0,blue,Fiction,3,3,4,1.0,1.0,5128.0,-1
S157,NF-1103,1.0,2.0,16140.0,blue,Fiction,0,0,1,1.0,1.0,3003.0,-2
S157,NF-1071,2.0,2.0,5388.0,green,Reality,0,0,0,1.0,1.0,2475.0,-3
S157,NF-1009,3.0,2.0,5448.0,green,Reality,1,0,0,1.0,1.0,1958.0,2
S157,NF-1020,4.0,2.0,3999.0,green,Reality,0,0,0,1.0,1.0,1277.0,-1
S157,NF-1046,5.0,2.0,5666.0,green,Reality,2,1,0,1.0,1.0,1298.0,2
S157,NF-1107,6.0,2.0,6300.0,green,Reality,2,0,0,1.0,1.0,3092.0,2
S157,NF-1093,7.0,2.0,4277.0,green,Reality,0,0,0,1.0,1.0,1872.0,1
S157,NF-1099,8.0,2.0,4350.0,green,Reality,0,0,0,1.0,1.0,1275.0,1
S157,NM-1091,9.0,2.0,4179.0,green,Reality,0,0,0,1.0,1.0,1395.0,-2
S157,NF-1056,10.0,2.0,4682.0,blue,Fiction,1,0,1,1.0,1.0,2114.0,2
S157,NF-1089,11.0,2.0,4008.0,blue,Fiction,0,0,0,1.0,1.0,1514.0,-2
S157,NF-1006,12.0,2.0,4204.0,green,Reality,0,0,0,1.0,1.0,1141.0,2
S157,NF-1023,13.0,2.0,8900.0,blue,Fiction,2,1,1,1.0,1.0,1877.0,2
S157,NF-1081,14.0,2.0,5619.0,green,Reality,2,1,0,1.0,1.0,1397.0,0
S157,NF-1030,15.0,2.0,3902.0,blue,Fiction,0,0,0,1.0,1.0,1677.0,2
S157,NM-1035,16.0,2.0,4355.0,blue,Fiction,0,0,0,1.0,1.0,1621.0,-2
S157,NF-1048,17.0,2.0,4868.0,blue,Fiction,0,0,0,1.0,1.0,1857.0,-2
S157,NF-1086,18.0,2.0,5284.0,blue,Fiction,0,0,0,1.0,1.0,1123.0,0
S157,NF-1105,19.0,2.0,5956.0,blue,Fiction,0,0,0,1.0,1.0,1776.0,-1
S157,NF-1065,20.0,2.0,4190.0,blue,Fiction,2,0,0,1.0,1.0,1358.0,-1
S157,NF-1110,21.0,2.0,4220.0,green,Reality,0,0,0,1.0,1.0,1250.0,1
S157,NF-1017,22.0,2.0,3524.0,blue,Fiction,0,0,0,1.0,1.0,1486.0,3
S157,NM-1055,23.0,2.0,4129.0,green,Reality,0,0,0,1.0,1.0,1529.0,-1
S157,NF-1028,24.0,2.0,4820.0,green,Reality,0,0,0,1.0,1.0,1302.0,-2
S157,NF-1077,25.0,2.0,3728.0,blue,Fiction,0,0,0,1.0,1.0,2171.0,-3
S157,NF-1063,26.0,2.0,4501.0,blue,Fiction,4,2,1,1.0,1.0,1541.0,3
S157,NF-1002,27.0,2.0,3351.0,blue,Fiction,0,0,0,1.0,1.0,1335.0,2
S157,NF-1024,28.0,2.0,3708.0,green,Reality,0,0,0,1.0,1.0,1572.0,1
S157,NF-1022,29.0,2.0,3445.0,green,Reality,0,0,0,1.0,1.0,1362.0,0
S157,NF-1084,30.0,2.0,5403.0,blue,Fiction,1,1,0,1.0,1.0,1460.0,2
S157,NF-1003,31.0,2.0,5958.0,green,Reality,0,0,0,1.0,1.0,1314.0,1
S157,NM-1092,32.0,2.0,4546.0,green,Reality,0,0,0,1.0,1.0,1480.0,-2
S157,NF-1037,33.0,2.0,3823.0,green,Reality,1,1,0,1.0,1.0,1204.0,-2
S157,NF-1012,34.0,2.0,3631.0,blue,Fiction,0,0,0,1.0,1.0,1651.0,-1
S157,NM-1007,35.0,2.0,4875.0,green,Reality,0,0,0,1.0,1.0,3315.0,-1
S157,NF-1069,36.0,2.0,3809.0,green,Reality,0,0,0,1.0,1.0,1526.0,-1
S157,NM-1052,37.0,2.0,4014.0,green,Reality,0,0,0,1.0,1.0,1896.0,-2
S157,NF-1060,38.0,2.0,3332.0,green,Reality,0,0,0,1.0,1.0,2042.0,2
S157,NM-1090,39.0,2.0,3485.0,blue,Fiction,0,0,0,1.0,1.0,1220.0,-2
S157,NF-1057,40.0,2.0,3362.0,blue,Fiction,0,0,0,1.0,1.0,1266.0,-3
S157,NF-1054,41.0,2.0,4003.0,blue,Fiction,0,0,0,1.0,1.0,1468.0,-2
S157,NF-1043,42.0,2.0,3686.0,green,Reality,0,0,0,1.0,1.0,1601.0,-1
S157,NF-1073,43.0,2.0,3819.0,green,Reality,0,0,0,1.0,1.0,1936.0,-1
S157,NF-1097,44.0,2.0,5253.0,blue,Fiction,4,1,0,1.0,1.0,1452.0,-1
S157,NF-1042,45.0,2.0,3851.0,green,Reality,3,2,0,1.0,1.0,1678.0,1
S157,NF-1036,46.0,2.0,4708.0,blue,Fiction,0,1,0,1.0,1.0,1737.0,-1
S157,NF-1049,47.0,2.0,5715.0,green,Reality,3,1,3,1.0,1.0,1089.0,1
S157,NF-1088,48.0,2.0,3680.0,green,Reality,0,0,0,1.0,1.0,1162.0,2
S157,NF-1001,49.0,2.0,3606.0,blue,Fiction,0,0,0,1.0,1.0,1919.0,0
S157,NF-1066,50.0,2.0,4672.0,green,Reality,2,0,2,1.0,1.0,1770.0,-1
S157,NF-1031,51.0,2.0,3812.0,green,Reality,0,0,0,1.0,1.0,1274.0,-2
S157,NF-1032,52.0,2.0,3683.0,blue,Fiction,0,0,0,1.0,1.0,1499.0,-3
S157,NM-1070,53.0,2.0,3961.0,blue,Fiction,0,0,0,1.0,1.0,1453.0,-1
S157,NF-1026,54.0,2.0,4217.0,blue,Fiction,0,0,0,1.0,1.0,1372.0,-2
S157,NM-1038,55.0,2.0,4329.0,blue,Fiction,0,0,0,1.0,1.0,1539.0,-1
S157,NF-1021,56.0,2.0,3265.0,green,Reality,0,0,0,1.0,1.0,2543.0,0
S157,NF-1076,57.0,2.0,3682.0,green,Reality,0,0,0,1.0,1.0,1466.0,1
S157,NF-1040,58.0,2.0,4518.0,blue,Fiction,0,0,0,1.0,1.0,1301.0,-2
S157,NF-1015,59.0,2.0,3886.0,blue,Fiction,0,0,0,1.0,1.0,1743.0,2
S157,NF-1085,60.0,2.0,3356.0,blue,Fiction,0,0,0,1.0,1.0,1480.0,0
S157,NF-1018,61.0,2.0,4614.0,green,Reality,0,0,0,1.0,1.0,1832.0,1
S157,NF-1072,62.0,2.0,5385.0,green,Reality,3,0,0,1.0,1.0,1749.0,-1
S157,NF-1051,63.0,2.0,5200.0,green,Reality,0,0,0,1.0,1.0,1531.0,-2
S157,NF-1067,64.0,2.0,4277.0,green,Reality,0,0,0,1.0,1.0,1541.0,-1
S157,NM-1011,65.0,2.0,4220.0,green,Reality,0,0,0,1.0,1.0,1615.0,1
S157,NF-1004,66.0,2.0,4251.0,green,Reality,0,0,0,1.0,1.0,1907.0,1
S157,NF-1100,67.0,2.0,3232.0,blue,Fiction,0,0,0,1.0,1.0,1154.0,2
S157,NF-1034,68.0,2.0,4295.0,green,Reality,0,0,0,1.0,1.0,1203.0,-3
S157,NF-1050,69.0,2.0,4737.0,green,Reality,4,0,1,1.0,1.0,1493.0,2
S157,NF-1062,70.0,2.0,3741.0,blue,Fiction,1,0,1,1.0,1.0,1119.0,1
S157,NF-1005,71.0,2.0,3876.0,green,Reality,0,0,0,1.0,1.0,1439.0,2
S157,NM-1010,72.0,2.0,4329.0,blue,Fiction,0,0,0,1.0,1.0,2110.0,-2
S157,NF-1101,73.0,2.0,3878.0,green,Reality,1,0,0,1.0,1.0,1571.0,0
S157,NM-1027,74.0,2.0,4662.0,blue,Fiction,0,0,0,1.0,1.0,1286.0,0
S157,NF-1059,75.0,2.0,4641.0,green,Reality,0,0,0,1.0,1.0,2129.0,-2
S157,NM-1033,76.0,2.0,4344.0,green,Reality,0,0,0,1.0,1.0,1789.0,-1
S157,NM-1058,77.0,2.0,6533.0,blue,Fiction,4,5,5,1.0,1.0,2331.0,-1
S157,NM-1064,78.0,2.0,5972.0,green,Reality,0,0,0,1.0,1.0,1618.0,1
S157,NF-1039,79.0,2.0,5492.0,blue,Fiction,0,0,0,1.0,1.0,1297.0,-3
S157,NF-1080,80.0,2.0,3518.0,blue,Fiction,3,1,0,1.0,1.0,1332.0,2
S157,NF-1044,81.0,2.0,3586.0,green,Reality,0,0,0,1.0,1.0,1180.0,-2
S157,NF-1106,82.0,2.0,4910.0,blue,Fiction,5,2,0,1.0,1.0,1657.0,2
S157,NF-1016,83.0,2.0,3868.0,blue,Fiction,0,0,0,1.0,1.0,1510.0,-1
S157,NF-1075,84.0,2.0,3879.0,blue,Fiction,0,0,0,1.0,1.0,1271.0,-3
S157,NF-1082,85.0,2.0,5907.0,blue,Fiction,0,0,0,1.0,1.0,1856.0,-1
S157,NM-1104,86.0,2.0,4173.0,green,Reality,0,0,0,1.0,1.0,2210.0,2
S157,NF-1045,87.0,2.0,3968.0,blue,Fiction,3,0,0,1.0,1.0,1423.0,1
S157,NF-1079,88.0,2.0,3355.0,green,Reality,0,0,0,1.0,1.0,2131.0,1
S157,NM-1102,89.0,2.0,4542.0,green,Reality,0,0,0,1.0,1.0,1250.0,2
S157,NF-1096,90.0,2.0,4291.0,blue,Fiction,0,0,0,1.0,1.0,1985.0,0
S157,NF-1108,91.0,2.0,6438.0,blue,Fiction,3,1,2,1.0,1.0,2804.0,2
S157,NF-1013,92.0,2.0,4240.0,blue,Fiction,0,0,0,1.0,1.0,1352.0,-2
S157,NF-1014,93.0,2.0,4239.0,green,Reality,0,0,0,1.0,1.0,1336.0,0
S157,NF-1008,94.0,2.0,4190.0,green,Reality,0,0,0,1.0,1.0,1400.0,2
S157,NF-1068,95.0,2.0,4036.0,blue,Fiction,4,1,0,1.0,1.0,1832.0,-1
S157,NF-1025,96.0,2.0,3770.0,blue,Fiction,0,0,0,1.0,1.0,1140.0,2
S157,NM-1074,97.0,2.0,3549.0,blue,Fiction,0,0,0,1.0,1.0,1333.0,-2
S157,NF-1061,98.0,2.0,5220.0,blue,Fiction,1,0,0,1.0,1.0,1421.0,2
S157,NF-1094,99.0,2.0,3567.0,blue,Fiction,2,0,0,1.0,1.0,1720.0,-2
S157,NF-1098,100.0,2.0,5103.0,blue,Fiction,2,1,1,1.0,1.0,1233.0,-1
S157,NF-1087,101.0,2.0,4036.0,blue,Fiction,0,0,0,1.0,1.0,1284.0,-2
S157,NF-1053,102.0,2.0,4707.0,green,Reality,1,0,0,1.0,1.0,1352.0,-3
S157,NF-1041,103.0,2.0,4306.0,green,Reality,2,0,0,1.0,1.0,1497.0,-1
S157,NF-1095,104.0,2.0,4245.0,green,Reality,1,0,0,1.0,1.0,1552.0,-3
S157,NF-1047,105.0,2.0,4485.0,green,Reality,0,0,0,1.0,1.0,1248.0,2
S157,NF-1083,106.0,2.0,5142.0,green,Reality,0,0,0,1.0,1.0,1435.0,-1
S157,NM-1029,107.0,2.0,4214.0,blue,Fiction,0,0,0,1.0,1.0,1610.0,1
S157,NF-1109,108.0,2.0,5411.0,blue,Fiction,0,0,0,1.0,1.0,1129.0,2
S157,NM-1019,109.0,2.0,6062.0,blue,Fiction,0,0,0,1.0,1.0,1646.0,1
S208,NF-1015,1.0,2.0,9970.0,red,Fiction,3,2,2,1.0,1.0,1268.0,1
S208,NF-1101,2.0,2.0,7111.0,blue,Reality,4,4,3,1.0,1.0,2637.0,2
S208,NF-1040,3.0,2.0,5428.0,red,Fiction,2,2,3,1.0,1.0,10132.0,2
S208,NF-1077,4.0,2.0,4550.0,blue,Reality,2,2,1,1.0,1.0,1154.0,-1
S208,NM-1064,5.0,2.0,6964.0,red,Fiction,2,0,2,1.0,1.0,1046.0,-1
S208,NF-1098,6.0,2.0,4804.0,blue,Reality,4,4,4,1.0,1.0,870.0,1
S208,NF-1031,7.0,2.0,4226.0,red,Fiction,2,1,2,1.0,1.0,1051.0,2
S208,NF-1097,8.0,2.0,3919.0,red,Fiction,4,5,3,1.0,1.0,1467.0,2
S208,NM-1007,9.0,2.0,4149.0,red,Fiction,1,0,1,1.0,1.0,947.0,2
S208,NM-1052,10.0,2.0,5741.0,blue,Reality,2,1,4,1.0,1.0,4271.0,1
S208,NF-1048,11.0,2.0,5078.0,red,Fiction,2,1,3,1.0,1.0,1496.0,-1
S208,NF-1069,12.0,2.0,4077.0,red,Fiction,3,3,1,1.0,1.0,1726.0,3
S208,NF-1016,13.0,2.0,3916.0,blue,Reality,4,4,2,1.0,1.0,2488.0,-1
S208,NF-1024,14.0,2.0,4818.0,blue,Reality,2,4,1,1.0,1.0,1850.0,-1
S208,NF-1060,15.0,2.0,3884.0,red,Fiction,3,2,4,1.0,1.0,6448.0,1
S208,NF-1034,16.0,2.0,4554.0,blue,Reality,2,0,2,1.0,1.0,1971.0,1
S208,NM-1102,17.0,2.0,4072.0,blue,Reality,2,1,3,1.0,1.0,2555.0,-1
S208,NF-1020,18.0,2.0,4833.0,red,Fiction,2,3,0,1.0,1.0,15257.0,1
S208,NF-1110,19.0,2.0,5772.0,blue,Reality,2,3,2,1.0,1.0,1573.0,-1
S208,NF-1006,20.0,2.0,3000.0,red,Fiction,2,1,2,1.0,1.0,1181.0,0
S208,NF-1008,21.0,2.0,3098.0,red,Fiction,4,4,4,1.0,1.0,2257.0,1
S208,NF-1030,22.0,2.0,7731.0,red,Fiction,3,4,3,1.0,1.0,903.0,3
S208,NF-1082,23.0,2.0,3499.0,blue,Reality,2,2,3,1.0,1.0,1460.0,-2
S208,NF-1042,24.0,2.0,6985.0,red,Fiction,2,3,2,1.0,1.0,2192.0,0
S208,NF-1085,25.0,2.0,3401.0,red,Fiction,3,4,3,1.0,1.0,4186.0,0
S208,NF-1108,26.0,2.0,4015.0,red,Fiction,3,3,1,1.0,1.0,3498.0,-2
S208,NF-1056,27.0,2.0,2858.0,blue,Reality,3,4,2,1.0,1.0,889.0,2
S208,NM-1092,28.0,2.0,3628.0,blue,Reality,1,1,2,1.0,1.0,923.0,-2
S208,NM-1035,29.0,2.0,4276.0,red,Fiction,2,1,3,1.0,1.0,876.0,2
S208,NF-1088,30.0,2.0,4112.0,blue,Reality,3,2,2,1.0,1.0,2268.0,-1
S208,NF-1087,31.0,2.0,5091.0,blue,Reality,3,4,3,1.0,1.0,3461.0,2
S208,NF-1065,32.0,2.0,5626.0,red,Fiction,4,4,1,1.0,1.0,1262.0,1
S208,NM-1091,33.0,2.0,6182.0,blue,Reality,3,4,1,1.0,1.0,1829.0,-2
S208,NM-1055,34.0,2.0,6886.0,blue,Reality,4,3,4,1.0,1.0,1089.0,-1
S208,NF-1045,35.0,2.0,5219.0,blue,Reality,4,2,4,1.0,1.0,998.0,0
S208,NF-1026,36.0,2.0,3257.0,blue,Reality,4,2,4,1.0,1.0,5374.0,1
S208,NF-1050,37.0,2.0,6059.0,blue,Reality,3,2,3,1.0,1.0,7169.0,-1
S208,NF-1066,38.0,2.0,5129.0,red,Fiction,4,5,2,1.0,1.0,2697.0,-1
S208,NF-1017,39.0,2.0,5259.0,red,Fiction,4,3,4,1.0,1.0,1826.0,0
S208,NF-1075,40.0,2.0,3756.0,blue,Reality,3,2,0,1.0,1.0,6452.0,2
S208,NF-1001,41.0,2.0,7508.0,red,Fiction,3,4,4,1.0,1.0,1381.0,-2
S208,NF-1086,42.0,2.0,6279.0,red,Fiction,4,3,4,1.0,1.0,1947.0,-2
S208,NF-1054,43.0,2.0,5871.0,blue,Reality,4,3,2,1.0,1.0,2588.0,-2
S208,NF-1061,44.0,2.0,5258.0,blue,Reality,3,4,2,1.0,1.0,1399.0,2
S208,NM-1019,45.0,2.0,4885.0,blue,Reality,2,1,3,1.0,1.0,2698.0,2
S208,NF-1032,46.0,2.0,8149.0,blue,Reality,2,3,2,1.0,1.0,2376.0,-2
S208,NF-1037,47.0,2.0,4207.0,blue,Reality,2,1,3,1.0,1.0,2980.0,-1
S208,NF-1072,48.0,2.0,5342.0,red,Fiction,2,3,4,1.0,1.0,1051.0,2
S208,NF-1059,49.0,2.0,5175.0,blue,Reality,3,2,1,1.0,1.0,2737.0,-1
S208,NF-1053,50.0,2.0,6065.0,red,Fiction,4,3,1,1.0,1.0,3601.0,2
S208,NF-1046,51.0,2.0,6366.0,blue,Reality,4,4,5,1.0,1.0,970.0,-1
S208,NF-1028,52.0,2.0,8366.0,blue,Reality,4,3,3,1.0,1.0,1690.0,2
S208,NF-1062,53.0,2.0,4471.0,red,Fiction,4,3,4,1.0,1.0,3034.0,-2
S208,NF-1009,54.0,2.0,4101.0,red,Fiction,1,3,2,1.0,1.0,861.0,1
S208,NF-1057,55.0,2.0,3154.0,red,Fiction,3,3,2,1.0,1.0,1247.0,2
S208,NF-1014,56.0,2.0,3102.0,red,Fiction,4,2,2,1.0,1.0,2867.0,-1
S208,NF-1083,57.0,2.0,3965.0,red,Fiction,5,2,1,1.0,1.0,2596.0,-1
S208,NF-1023,58.0,2.0,4395.0,blue,Reality,2,4,4,1.0,1.0,768.0,2
S208,NF-1044,59.0,2.0,4174.0,blue,Reality,4,3,4,1.0,1.0,3025.0,0
S208,NF-1012,60.0,2.0,4917.0,blue,Reality,3,3,2,1.0,1.0,1385.0,-2
S208,NF-1039,61.0,2.0,4678.0,blue,Reality,2,2,3,1.0,1.0,2924.0,2
S208,NF-1109,62.0,2.0,3574.0,red,Fiction,3,2,1,1.0,1.0,1415.0,2
S208,NF-1079,63.0,2.0,8259.0,blue,Reality,3,2,2,1.0,1.0,1704.0,2
S208,NF-1105,64.0,2.0,7465.0,red,Fiction,3,3,2,1.0,1.0,672.0,2
S208,NM-1038,65.0,2.0,5988.0,red,Fiction,1,2,3,1.0,1.0,2867.0,-1
S208,NF-1004,66.0,2.0,5048.0,red,Fiction,3,2,3,1.0,1.0,1792.0,1
S208,NF-1003,67.0,2.0,4334.0,blue,Reality,2,2,3,1.0,1.0,3760.0,-1
S208,NF-1022,68.0,2.0,9240.0,red,Fiction,3,4,2,1.0,1.0,2121.0,-1
S208,NF-1094,69.0,2.0,6043.0,blue,Reality,4,3,4,1.0,1.0,3130.0,1
S208,NF-1076,70.0,2.0,5791.0,red,Fiction,5,5,2,1.0,1.0,2207.0,2
S208,NF-1025,71.0,2.0,5590.0,red,Fiction,4,3,3,1.0,1.0,1033.0,1
S208,NF-1089,72.0,2.0,7473.0,blue,Reality,3,3,4,1.0,1.0,3964.0,-1
S208,NF-1021,73.0,2.0,4159.0,blue,Reality,4,3,3,1.0,1.0,4721.0,-1
S208,NF-1095,74.0,2.0,5900.0,blue,Reality,2,2,3,1.0,1.0,2933.0,1
S208,NF-1063,75.0,2.0,5698.0,red,Fiction,3,2,2,1.0,1.0,1009.0,1
S208,NM-1090,76.0,2.0,21501.0,blue,Reality,2,2,3,1.0,1.0,1219.0,-1
S208,NF-1084,77.0,2.0,6396.0,blue,Reality,3,2,2,1.0,1.0,1095.0,2
S208,NF-1099,78.0,2.0,3420.0,red,Fiction,2,2,2,1.0,1.0,6418.0,-2
S208,NF-1096,79.0,2.0,7898.0,blue,Reality,3,3,2,1.0,1.0,1419.0,2
S208,NF-1073,80.0,2.0,4927.0,blue,Reality,4,3,4,1.0,1.0,1449.0,2
S208,NM-1027,81.0,2.0,6823.0,red,Fiction,4,3,3,1.0,1.0,1306.0,2
S208,NF-1018,82.0,2.0,4053.0,blue,Reality,3,3,4,1.0,1.0,1405.0,0
S208,NF-1036,83.0,2.0,3825.0,blue,Reality,4,3,2,1.0,1.0,3651.0,-1
S208,NF-1068,84.0,2.0,3393.0,red,Fiction,3,3,1,1.0,1.0,935.0,-2
S208,NF-1005,85.0,2.0,3512.0,red,Fiction,3,2,2,1.0,1.0,867.0,1
S208,NF-1067,86.0,2.0,10088.0,blue,Reality,3,3,4,1.0,1.0,1045.0,2
S208,NF-1041,87.0,2.0,7673.0,blue,Reality,3,4,2,1.0,1.0,937.0,2
S208,NM-1074,88.0,2.0,2681.0,red,Fiction,0,1,0,1.0,1.0,2742.0,0
S208,NF-1049,89.0,2.0,4506.0,red,Fiction,2,2,2,1.0,1.0,1154.0,1
S208,NF-1013,90.0,2.0,2881.0,blue,Reality,3,3,4,1.0,1.0,1702.0,2
S208,NM-1033,91.0,2.0,6580.0,red,Fiction,4,3,3,1.0,1.0,1090.0,2
S208,NM-1104,92.0,2.0,5604.0,blue,Reality,1,2,1,1.0,1.0,1597.0,1
S208,NM-1011,93.0,2.0,4823.0,red,Fiction,2,2,4,1.0,1.0,1172.0,2
S208,NF-1002,94.0,2.0,5423.0,blue,Reality,4,3,3,1.0,1.0,1009.0,-1
S208,NF-1043,95.0,2.0,3851.0,blue,Reality,3,3,2,1.0,1.0,3985.0,2
S208,NF-1080,96.0,2.0,5346.0,red,Fiction,4,3,4,1.0,1.0,3141.0,-1
S208,NF-1051,97.0,2.0,5383.0,blue,Reality,3,4,3,1.0,1.0,2715.0,0
S208,NM-1029,98.0,2.0,5518.0,blue,Reality,1,1,0,1.0,1.0,760.0,-2
S208,NM-1010,99.0,2.0,7918.0,red,Fiction,3,2,3,1.0,1.0,1083.0,0
S208,NF-1081,100.0,2.0,7055.0,red,Fiction,2,2,4,1.0,1.0,9597.0,-1
S208,NF-1071,101.0,2.0,25093.0,blue,Reality,2,4,3,1.0,1.0,1298.0,-1
S208,NF-1100,102.0,2.0,9398.0,blue,Reality,4,3,3,1.0,1.0,892.0,-1
S208,NM-1058,103.0,2.0,3185.0,blue,Reality,4,1,4,1.0,1.0,2486.0,2
S208,NF-1093,104.0,2.0,3191.0,red,Fiction,2,3,2,1.0,1.0,1016.0,2
S208,NF-1103,105.0,2.0,5315.0,red,Fiction,4,3,2,1.0,1.0,2344.0,1
S208,NF-1107,106.0,2.0,15957.0,red,Fiction,3,2,3,1.0,1.0,1625.0,-1
S208,NF-1047,107.0,2.0,4502.0,red,Fiction,2,2,1,1.0,1.0,2482.0,1
S208,NF-1106,108.0,2.0,3895.0,red,Fiction,2,2,3,1.0,1.0,8094.0,-1
S208,NM-1070,109.0,2.0,3599.0,red,Fiction,2,1,3,1.0,1.0,1216.0,-1
S134,NF-1095,1.0,2.0,13744.0,red,Reality,3,3,3,1.0,1.0,4232.0,-3
S134,NF-1043,2.0,2.0,8562.0,red,Reality,4,4,4,1.0,1.0,1768.0,-3
S134,NF-1039,3.0,2.0,4433.0,green,Fiction,0,0,6,1.0,1.0,1142.0,-3
S134,NF-1006,4.0,2.0,6236.0,green,Fiction,0,0,6,1.0,1.0,2444.0,3
S134,NF-1084,5.0,2.0,14020.0,red,Reality,4,3,0,1.0,1.0,2224.0,0
S134,NF-1018,6.0,2.0,7161.0,green,Fiction,4,4,6,1.0,1.0,1321.0,-3
S134,NF-1037,7.0,2.0,4070.0,green,Fiction,0,0,0,1.0,1.0,1659.0,-2
S134,NM-1091,8.0,2.0,4012.0,green,Fiction,0,0,0,1.0,1.0,2822.0,-3
S134,NF-1014,9.0,2.0,4815.0,red,Reality,0,0,0,1.0,1.0,868.0,3
S134,NF-1079,10.0,2.0,4053.0,red,Reality,0,0,0,1.0,1.0,2203.0,3
S134,NF-1001,11.0,2.0,3451.0,red,Reality,0,0,0,1.0,1.0,1826.0,-3
S134,NF-1071,12.0,2.0,2849.0,red,Reality,0,0,0,1.0,1.0,803.0,-3
S134,NF-1088,13.0,2.0,6557.0,green,Fiction,3,3,4,1.0,1.0,1517.0,3
S134,NF-1089,14.0,2.0,3161.0,red,Reality,0,0,0,1.0,1.0,838.0,-3
S134,NF-1009,15.0,2.0,5142.0,green,Fiction,3,4,5,1.0,1.0,1286.0,-3
S134,NF-1054,16.0,2.0,5767.0,green,Fiction,0,0,4,1.0,1.0,1289.0,-3
S134,NF-1100,17.0,2.0,6881.0,red,Reality,0,2,5,1.0,1.0,1003.0,-3
S134,NM-1070,18.0,2.0,5188.0,red,Reality,3,3,3,1.0,1.0,1319.0,-3
S134,NF-1053,19.0,2.0,2578.0,green,Fiction,0,0,0,1.0,1.0,1195.0,-3
S134,NF-1093,20.0,2.0,3335.0,red,Reality,3,3,6,1.0,1.0,850.0,3
S134,NF-1085,21.0,2.0,3318.0,green,Fiction,0,0,0,1.0,1.0,1177.0,0
S134,NM-1092,22.0,2.0,3879.0,red,Reality,0,0,0,1.0,1.0,882.0,-3
S134,NF-1059,23.0,2.0,6020.0,green,Fiction,0,0,0,1.0,1.0,2152.0,3
S134,NF-1049,24.0,2.0,7435.0,green,Fiction,2,1,0,1.0,1.0,851.0,-3
S134,NF-1077,25.0,2.0,3140.0,red,Reality,0,0,0,1.0,1.0,768.0,-3
S134,NM-1052,26.0,2.0,2246.0,red,Reality,0,0,0,1.0,1.0,1021.0,-3
S134,NF-1016,27.0,2.0,5537.0,red,Reality,0,3,4,1.0,1.0,1279.0,-3
S134,NF-1048,28.0,2.0,2925.0,green,Fiction,0,0,0,1.0,1.0,1089.0,-3
S134,NF-1032,29.0,2.0,29490.0,green,Fiction,0,3,0,1.0,1.0,1462.0,-3
S134,NF-1110,30.0,2.0,12649.0,red,Reality,0,0,0,1.0,1.0,1275.0,-3
S134,NF-1004,31.0,2.0,5078.0,red,Reality,0,0,0,1.0,1.0,1598.0,3
S134,NF-1062,32.0,2.0,4241.0,red,Reality,3,3,6,1.0,1.0,1593.0,3
S134,NF-1083,33.0,2.0,4387.0,red,Reality,0,0,2,1.0,1.0,818.0,3
S134,NF-1060,34.0,2.0,9752.0,green,Fiction,3,1,3,1.0,1.0,1026.0,3
S134,NF-1028,35.0,2.0,5348.0,red,Reality,3,3,5,1.0,1.0,1104.0,-3
S134,NF-1097,36.0,2.0,9304.0,green,Fiction,3,2,0,1.0,1.0,1212.0,3
S134,NF-1030,37.0,2.0,6206.0,green,Fiction,0,0,0,1.0,1.0,1780.0,-3
S134,NF-1050,38.0,2.0,3979.0,red,Reality,0,0,0,1.0,1.0,950.0,3
S134,NF-1021,39.0,2.0,2616.0,green,Fiction,0,0,0,1.0,1.0,1181.0,0
S134,NF-1069,40.0,2.0,4018.0,red,Reality,0,0,0,1.0,1.0,1171.0,3
S134,NF-1066,41.0,2.0,3628.0,red,Reality,0,0,0,1.0,1.0,1028.0,-3
S134,NF-1056,42.0,2.0,4816.0,green,Fiction,3,3,3,1.0,1.0,1619.0,3
S134,NF-1080,43.0,2.0,2945.0,red,Reality,0,0,0,1.0,1.0,949.0,3
S134,NF-1094,44.0,2.0,3563.0,red,Reality,3,3,5,1.0,1.0,929.0,-3
S134,NM-1033,45.0,2.0,2843.0,red,Reality,0,0,3,1.0,1.0,1490.0,0
S134,NM-1035,46.0,2.0,9779.0,green,Fiction,3,2,4,1.0,1.0,1782.0,3
S134,NF-1086,47.0,2.0,4220.0,red,Reality,4,3,5,1.0,1.0,1001.0,3
S134,NM-1038,48.0,2.0,2921.0,red,Reality,0,0,0,1.0,1.0,809.0,-3
S134,NF-1020,49.0,2.0,3129.0,green,Fiction,0,0,0,1.0,1.0,1294.0,-3
S134,NF-1082,50.0,2.0,3550.0,red,Reality,3,3,3,1.0,1.0,931.0,3
S134,NF-1023,51.0,2.0,2483.0,red,Reality,0,0,0,1.0,1.0,745.0,3
S134,NF-1103,52.0,2.0,4973.0,red,Reality,0,0,3,1.0,1.0,1159.0,3
S134,NF-1005,53.0,2.0,4599.0,green,Fiction,4,4,4,1.0,1.0,1905.0,3
S134,NM-1058,54.0,2.0,7369.0,green,Fiction,3,3,1,1.0,1.0,1020.0,3
S134,NF-1031,55.0,2.0,3166.0,red,Reality,0,0,6,1.0,1.0,1405.0,-3
S134,NF-1072,56.0,2.0,5848.0,red,Reality,3,3,5,1.0,1.0,3849.0,0
S134,NF-1026,57.0,2.0,6768.0,green,Fiction,0,0,0,1.0,1.0,1375.0,3
S134,NF-1099,58.0,2.0,4373.0,green,Fiction,3,2,0,1.0,1.0,1282.0,3
S134,NF-1101,59.0,2.0,2521.0,green,Fiction,0,0,0,1.0,1.0,882.0,3
S134,NF-1107,60.0,2.0,2979.0,green,Fiction,0,0,0,1.0,1.0,1021.0,3
S134,NF-1067,61.0,2.0,4039.0,red,Reality,2,2,4,1.0,1.0,803.0,-3
S134,NF-1051,62.0,2.0,4349.0,green,Fiction,1,2,6,1.0,1.0,2061.0,-3
S134,NF-1065,63.0,2.0,2967.0,green,Fiction,3,3,6,1.0,1.0,995.0,-3
S134,NF-1046,64.0,2.0,4308.0,red,Reality,0,2,5,1.0,1.0,827.0,3
S134,NF-1002,65.0,2.0,2624.0,green,Fiction,0,0,0,1.0,1.0,794.0,-3
S134,NF-1041,66.0,2.0,4180.0,red,Reality,1,1,1,1.0,1.0,920.0,3
S134,NM-1029,67.0,2.0,4070.0,red,Reality,0,0,0,1.0,1.0,733.0,3
S134,NF-1034,68.0,2.0,4104.0,green,Fiction,0,0,0,1.0,1.0,929.0,-3
S134,NF-1042,69.0,2.0,3758.0,green,Fiction,2,2,5,1.0,1.0,822.0,3
S134,NF-1015,70.0,2.0,3316.0,red,Reality,0,1,5,1.0,1.0,1035.0,3
S134,NM-1064,71.0,2.0,2639.0,green,Fiction,0,0,0,1.0,1.0,1346.0,3
S134,NF-1013,72.0,2.0,2910.0,green,Fiction,0,0,0,1.0,1.0,811.0,3
S134,NF-1105,73.0,2.0,4342.0,red,Reality,2,1,1,1.0,1.0,1239.0,3
S134,NM-1090,74.0,2.0,3499.0,green,Fiction,0,0,0,1.0,1.0,1022.0,3
S134,NM-1011,75.0,2.0,2423.0,green,Fiction,0,0,0,1.0,1.0,868.0,3
S134,NF-1025,76.0,2.0,2974.0,green,Fiction,0,0,0,1.0,1.0,1502.0,-3
S134,NF-1022,77.0,2.0,3933.0,green,Fiction,3,2,4,1.0,1.0,1018.0,-3
S134,NF-1003,78.0,2.0,4751.0,red,Reality,3,3,3,1.0,1.0,1508.0,-2
S134,NF-1057,79.0,2.0,2519.0,green,Fiction,0,0,0,1.0,1.0,1791.0,-3
S134,NF-1044,80.0,2.0,3441.0,green,Fiction,0,0,0,1.0,1.0,1920.0,-3
S134,NF-1061,81.0,2.0,4505.0,green,Fiction,1,0,0,1.0,1.0,950.0,-3
S134,NF-1024,82.0,2.0,2299.0,red,Reality,0,0,0,1.0,1.0,1006.0,-3
S134,NM-1055,83.0,2.0,3821.0,red,Reality,0,0,0,1.0,1.0,1007.0,-3
S134,NF-1063,84.0,2.0,5237.0,green,Fiction,4,3,3,1.0,1.0,1006.0,3
S134,NF-1096,85.0,2.0,4043.0,red,Reality,3,3,5,1.0,1.0,1304.0,-3
S134,NM-1102,86.0,2.0,2618.0,green,Fiction,0,0,0,1.0,1.0,1490.0,-3
S134,NF-1087,87.0,2.0,2288.0,red,Reality,0,0,0,1.0,1.0,1946.0,-3
S134,NM-1027,88.0,2.0,3149.0,green,Fiction,0,0,0,1.0,1.0,819.0,3
S134,NF-1076,89.0,2.0,3814.0,red,Reality,3,3,4,1.0,1.0,733.0,3
S134,NF-1017,90.0,2.0,4155.0,green,Fiction,0,0,0,1.0,1.0,1640.0,-3
S134,NM-1104,91.0,2.0,2847.0,red,Reality,3,3,6,1.0,1.0,849.0,-3
S134,NF-1073,92.0,2.0,2758.0,green,Fiction,0,0,0,1.0,1.0,1045.0,3
S134,NF-1008,93.0,2.0,2845.0,red,Reality,0,0,0,1.0,1.0,1712.0,3
S134,NM-1019,94.0,2.0,4042.0,green,Fiction,0,0,0,1.0,1.0,1133.0,3
S134,NF-1106,95.0,2.0,5934.0,green,Fiction,4,2,4,1.0,1.0,1422.0,-3
S134,NM-1007,96.0,2.0,2488.0,red,Reality,0,0,0,1.0,1.0,1004.0,3
S134,NF-1045,97.0,2.0,4155.0,red,Reality,0,3,4,1.0,1.0,993.0,3
S134,NF-1098,98.0,2.0,2673.0,green,Fiction,0,0,0,1.0,1.0,708.0,3
S134,NF-1081,99.0,2.0,3315.0,red,Reality,0,0,0,1.0,1.0,1102.0,3
S134,NF-1075,100.0,2.0,3184.0,green,Fiction,0,0,0,1.0,1.0,890.0,3
S134,NF-1047,101.0,2.0,2378.0,red,Reality,0,0,0,1.0,1.0,933.0,3
S134,NF-1012,102.0,2.0,2481.0,green,Fiction,0,0,0,1.0,1.0,764.0,-3
S134,NF-1108,103.0,2.0,2997.0,green,Fiction,0,0,0,1.0,1.0,864.0,3
S134,NF-1040,104.0,2.0,3065.0,green,Fiction,0,0,0,1.0,1.0,1302.0,3
S134,NF-1036,105.0,2.0,16981.0,red,Reality,0,0,0,1.0,1.0,1855.0,3
S134,NF-1068,106.0,2.0,4613.0,red,Reality,0,0,0,1.0,1.0,1025.0,3
S134,NM-1074,107.0,2.0,3159.0,red,Reality,0,0,4,1.0,1.0,2469.0,-2
S134,NM-1010,108.0,2.0,2993.0,green,Fiction,0,0,0,1.0,1.0,881.0,3
S134,NF-1109,109.0,2.0,2972.0,red,Reality,0,0,0,1.0,1.0,1981.0,-3
S071,NF-1051,1.0,2.0,14255.0,red,Fiction,3,3,3,1.0,1.0,1278.0,-3
S071,NF-1037,2.0,2.0,6528.0,red,Fiction,3,2,3,1.0,1.0,1383.0,-2
S071,NF-1095,3.0,2.0,7951.0,red,Fiction,4,4,4,1.0,1.0,1330.0,-2
S071,NM-1033,4.0,2.0,4477.0,red,Fiction,2,2,2,1.0,1.0,1586.0,2
S071,NM-1038,5.0,2.0,9001.0,green,Reality,3,3,2,1.0,1.0,2590.0,1
S071,NF-1066,6.0,2.0,5718.0,green,Reality,4,4,3,1.0,1.0,1322.0,-1
S071,NF-1082,7.0,2.0,5814.0,green,Reality,3,3,2,1.0,1.0,1103.0,2
S071,NF-1013,8.0,2.0,3015.0,red,Fiction,2,2,2,1.0,1.0,1637.0,2
S071,NF-1042,9.0,2.0,5966.0,red,Fiction,3,2,4,1.0,1.0,1176.0,2
S071,NM-1019,10.0,2.0,3116.0,red,Fiction,2,2,2,1.0,1.0,1362.0,1
S071,NF-1072,11.0,2.0,3752.0,red,Fiction,4,3,3,1.0,1.0,1304.0,3
S071,NF-1025,12.0,2.0,4845.0,green,Reality,3,3,4,1.0,1.0,1392.0,-2
S071,NF-1067,13.0,2.0,4295.0,red,Fiction,3,3,2,1.0,1.0,1109.0,2
S071,NF-1061,14.0,2.0,3288.0,red,Fiction,4,4,3,1.0,1.0,1194.0,3
S071,NF-1046,15.0,2.0,5978.0,green,Reality,5,4,3,1.0,1.0,1085.0,3
S071,NM-1090,16.0,2.0,3084.0,green,Reality,3,3,4,1.0,1.0,1100.0,2
S071,NF-1036,17.0,2.0,5104.0,red,Fiction,4,3,5,1.0,1.0,1761.0,-1
S071,NF-1088,18.0,2.0,4225.0,red,Fiction,4,4,5,1.0,1.0,963.0,3
S071,NM-1035,19.0,2.0,2445.0,red,Fiction,3,3,2,1.0,1.0,1978.0,1
S071,NF-1093,20.0,2.0,3725.0,green,Reality,3,3,5,1.0,1.0,1032.0,3
S071,NF-1045,21.0,2.0,3475.0,green,Reality,4,4,3,1.0,1.0,2013.0,2
S071,NM-1104,22.0,2.0,3440.0,green,Reality,3,2,2,1.0,1.0,2591.0,2
S071,NF-1016,23.0,2.0,2923.0,green,Reality,4,4,5,1.0,1.0,1120.0,2
S071,NF-1031,24.0,2.0,5433.0,red,Fiction,3,3,3,1.0,1.0,1240.0,2
S071,NM-1052,25.0,2.0,4607.0,red,Fiction,3,3,5,1.0,1.0,872.0,3
S071,NF-1073,26.0,2.0,3812.0,green,Reality,4,4,4,1.0,1.0,1172.0,3
S071,NF-1085,27.0,2.0,3221.0,red,Fiction,3,3,5,1.0,1.0,1486.0,0
S071,NF-1071,28.0,2.0,4404.0,green,Reality,2,2,6,1.0,1.0,1731.0,-3
S071,NM-1058,29.0,2.0,3116.0,red,Fiction,5,5,5,1.0,1.0,2353.0,3
S071,NF-1105,30.0,2.0,5096.0,green,Reality,4,3,3,1.0,1.0,1022.0,0
S071,NF-1057,31.0,2.0,4169.0,green,Reality,3,2,4,1.0,1.0,2866.0,-2
S071,NF-1049,32.0,2.0,3003.0,red,Fiction,3,3,3,1.0,1.0,1472.0,1
S071,NF-1002,33.0,2.0,4130.0,red,Fiction,2,2,5,1.0,1.0,3054.0,-3
S071,NF-1087,34.0,2.0,2814.0,green,Reality,2,2,2,1.0,1.0,1133.0,1
S071,NF-1075,35.0,2.0,3794.0,green,Reality,3,3,6,1.0,1.0,1620.0,1
S071,NF-1003,36.0,2.0,3063.0,red,Fiction,5,3,4,1.0,1.0,1770.0,3
S071,NF-1083,37.0,2.0,5019.0,green,Reality,3,3,3,1.0,1.0,1288.0,3
S071,NM-1102,38.0,2.0,3386.0,green,Reality,5,4,3,1.0,1.0,1448.0,2
S071,NF-1094,39.0,2.0,3274.0,green,Reality,3,3,5,1.0,1.0,1631.0,0
S071,NF-1054,40.0,2.0,3287.0,green,Reality,3,3,5,1.0,1.0,1189.0,3
S071,NF-1065,41.0,2.0,3032.0,red,Fiction,3,3,5,1.0,1.0,998.0,3
S071,NM-1092,42.0,2.0,4569.0,green,Reality,2,2,5,1.0,1.0,1521.0,-1
S071,NF-1032,43.0,2.0,4107.0,red,Fiction,5,4,4,1.0,1.0,1301.0,1
S071,NF-1056,44.0,2.0,3665.0,red,Fiction,4,4,4,1.0,1.0,1396.0,-2
S071,NF-1012,45.0,2.0,5786.0,red,Fiction,3,3,3,1.0,1.0,3502.0,-2
S071,NF-1059,46.0,2.0,2588.0,green,Reality,3,3,2,1.0,1.0,1934.0,0
S071,NF-1079,47.0,2.0,3859.0,green,Reality,3,3,2,1.0,1.0,2305.0,1
S071,NF-1103,48.0,2.0,4940.0,red,Fiction,3,2,3,1.0,1.0,1031.0,-2
S071,NF-1047,49.0,2.0,5167.0,green,Reality,2,2,2,1.0,1.0,2647.0,-2
S071,NF-1028,50.0,2.0,3644.0,red,Fiction,4,3,3,1.0,1.0,1707.0,2
S071,NF-1081,51.0,2.0,3368.0,green,Reality,2,2,3,1.0,1.0,2291.0,-3
S071,NF-1110,52.0,2.0,2827.0,red,Fiction,3,3,5,1.0,1.0,1219.0,2
S071,NF-1101,53.0,2.0,4003.0,red,Fiction,3,2,4,1.0,1.0,925.0,2
S071,NF-1048,54.0,2.0,4009.0,red,Fiction,4,3,4,1.0,1.0,1299.0,3
S071,NM-1091,55.0,2.0,4736.0,red,Fiction,3,2,3,1.0,1.0,2528.0,0
S071,NM-1029,56.0,2.0,5638.0,green,Reality,2,2,4,1.0,1.0,1879.0,1
S071,NF-1062,57.0,2.0,2783.0,green,Reality,3,3,3,1.0,1.0,1879.0,1
S071,NF-1050,58.0,2.0,3758.0,red,Fiction,4,3,4,1.0,1.0,1259.0,3
S071,NF-1097,59.0,2.0,3380.0,green,Reality,4,4,3,1.0,1.0,1389.0,2
S071,NF-1021,60.0,2.0,4918.0,red,Fiction,4,4,4,1.0,1.0,1160.0,0
S071,NM-1010,61.0,2.0,4758.0,green,Reality,3,4,3,1.0,1.0,2198.0,1
S071,NF-1069,62.0,2.0,3917.0,green,Reality,3,3,4,1.0,1.0,1659.0,2
S071,NF-1041,63.0,2.0,3501.0,red,Fiction,2,2,3,1.0,1.0,1357.0,-3
S071,NM-1070,64.0,2.0,3799.0,green,Reality,4,3,2,1.0,1.0,1065.0,-2
S071,NF-1107,65.0,2.0,4306.0,green,Reality,3,2,3,1.0,1.0,880.0,3
S071,NF-1022,66.0,2.0,4387.0,green,Reality,2,2,5,1.0,1.0,1394.0,3
S071,NF-1108,67.0,2.0,3341.0,red,Fiction,4,4,3,1.0,1.0,1095.0,3
S071,NF-1004,68.0,2.0,2460.0,green,Reality,3,3,5,1.0,1.0,1133.0,2
S071,NM-1007,69.0,2.0,3717.0,red,Fiction,3,2,5,1.0,1.0,2501.0,-2
S071,NF-1044,70.0,2.0,4354.0,green,Reality,4,3,6,1.0,1.0,989.0,0
S071,NF-1100,71.0,2.0,5273.0,green,Reality,4,4,6,1.0,1.0,2408.0,2
S071,NF-1080,72.0,2.0,5956.0,green,Reality,5,4,4,1.0,1.0,1411.0,3
S071,NF-1084,73.0,2.0,5500.0,red,Fiction,4,4,4,1.0,1.0,1053.0,3
S071,NF-1098,74.0,2.0,3249.0,green,Reality,4,3,6,1.0,1.0,960.0,0
S071,NF-1076,75.0,2.0,5468.0,green,Reality,5,4,3,1.0,1.0,2107.0,0
S071,NF-1089,76.0,2.0,2851.0,green,Reality,3,3,3,1.0,1.0,1213.0,-2
S071,NF-1077,77.0,2.0,2667.0,red,Fiction,3,3,3,1.0,1.0,1213.0,1
S071,NF-1008,78.0,2.0,4065.0,green,Reality,3,3,5,1.0,1.0,1382.0,0
S071,NM-1011,79.0,2.0,4746.0,red,Fiction,4,4,2,1.0,1.0,4595.0,2
S071,NF-1006,80.0,2.0,5022.0,red,Fiction,3,2,5,1.0,1.0,1256.0,3
S071,NF-1096,81.0,2.0,5139.0,red,Fiction,3,2,5,1.0,1.0,1365.0,-1
S071,NF-1018,82.0,2.0,4135.0,red,Fiction,4,3,6,1.0,1.0,1215.0,2
S071,NM-1055,83.0,2.0,2983.0,green,Reality,2,2,5,1.0,1.0,1155.0,2
S071,NF-1060,84.0,2.0,6364.0,red,Fiction,4,2,6,1.0,1.0,1076.0,3
S071,NF-1017,85.0,2.0,4460.0,green,Reality,4,3,5,1.0,1.0,1088.0,3
S071,NF-1005,86.0,2.0,3908.0,green,Reality,5,3,6,1.0,1.0,1601.0,3
S071,NF-1053,87.0,2.0,6497.0,red,Fiction,4,3,6,1.0,1.0,1417.0,2
S071,NF-1040,88.0,2.0,4352.0,green,Reality,5,4,6,1.0,1.0,1107.0,3
S071,NM-1027,89.0,2.0,4405.0,red,Fiction,4,4,3,1.0,1.0,1290.0,3
S071,NF-1030,90.0,2.0,4082.0,green,Reality,5,4,4,1.0,1.0,2413.0,2
S071,NF-1009,91.0,2.0,4485.0,red,Fiction,3,3,6,1.0,1.0,1677.0,0
S071,NF-1063,92.0,2.0,3616.0,red,Fiction,5,5,5,1.0,1.0,3014.0,0
S071,NF-1015,93.0,2.0,3388.0,red,Fiction,4,3,6,1.0,1.0,1633.0,3
S071,NF-1001,94.0,2.0,5767.0,red,Fiction,3,2,2,1.0,1.0,2573.0,-2
S071,NF-1023,95.0,2.0,5130.0,green,Reality,5,4,5,1.0,1.0,985.0,3
S071,NF-1024,96.0,2.0,4477.0,green,Reality,4,4,4,1.0,1.0,1226.0,-1
S071,NF-1020,97.0,2.0,3495.0,green,Reality,3,3,3,1.0,1.0,1184.0,0
S071,NM-1064,98.0,2.0,6114.0,red,Fiction,4,3,3,1.0,1.0,939.0,3
S071,NF-1039,99.0,2.0,4194.0,green,Reality,3,2,6,1.0,1.0,2023.0,0
S071,NF-1109,100.0,2.0,2964.0,red,Fiction,3,2,3,1.0,1.0,981.0,2
S071,NF-1068,101.0,2.0,4094.0,red,Fiction,3,2,4,1.0,1.0,1194.0,0
S071,NF-1043,102.0,2.0,3414.0,red,Fiction,3,3,3,1.0,1.0,1157.0,2
S071,NF-1086,103.0,2.0,2986.0,red,Fiction,3,3,6,1.0,1.0,1057.0,2
S071,NM-1074,104.0,2.0,3921.0,green,Reality,4,3,4,1.0,1.0,1054.0,3
S071,NF-1014,105.0,2.0,3963.0,green,Reality,3,2,6,1.0,1.0,2387.0,1
S071,NF-1099,106.0,2.0,7237.0,green,Reality,5,3,5,1.0,1.0,2012.0,1
S071,NF-1034,107.0,2.0,4272.0,green,Reality,3,2,4,1.0,1.0,1178.0,3
S071,NF-1026,108.0,2.0,4452.0,red,Fiction,3,3,6,1.0,1.0,2085.0,-1
S071,NF-1106,109.0,2.0,5734.0,green,Reality,5,5,4,1.0,1.0,1013.0,-2
S144,NM-1074,1.0,2.0,18541.0,blue,Fiction,2,1,4,1.0,1.0,1336.0,-1
S144,NF-1032,2.0,2.0,10345.0,blue,Fiction,4,4,5,1.0,1.0,996.0,1
S144,NF-1076,3.0,2.0,6139.0,blue,Fiction,5,5,5,1.0,1.0,1094.0,-2
S144,NF-1097,4.0,2.0,11429.0,red,Reality,4,4,4,1.0,1.0,1524.0,1
S144,NF-1034,5.0,2.0,6698.0,blue,Fiction,3,3,3,1.0,1.0,1879.0,1
S144,NF-1001,6.0,2.0,9140.0,blue,Fiction,2,1,3,1.0,1.0,1179.0,1
S144,NF-1071,7.0,2.0,6297.0,red,Reality,3,3,3,1.0,1.0,908.0,-1
S144,NM-1007,8.0,2.0,7273.0,blue,Fiction,3,2,3,1.0,1.0,1415.0,1
S144,NF-1107,9.0,2.0,4087.0,blue,Fiction,4,4,4,1.0,1.0,1735.0,-1
S144,NF-1099,10.0,2.0,10766.0,red,Reality,4,3,4,1.0,1.0,834.0,0
S144,NF-1037,11.0,2.0,10378.0,red,Reality,3,3,3,1.0,1.0,6417.0,1
S144,NF-1089,12.0,2.0,6062.0,blue,Fiction,3,3,4,1.0,1.0,1203.0,-1
S144,NF-1075,13.0,2.0,6219.0,blue,Fiction,3,3,3,1.0,1.0,1194.0,1
S144,NF-1005,14.0,2.0,4825.0,blue,Fiction,4,4,4,1.0,1.0,1120.0,0
S144,NM-1091,15.0,2.0,8417.0,blue,Fiction,3,2,3,1.0,1.0,1399.0,1
S144,NF-1069,16.0,2.0,6223.0,blue,Fiction,3,3,4,1.0,1.0,1033.0,0
S144,NF-1014,17.0,2.0,3623.0,red,Reality,3,3,4,1.0,1.0,1289.0,1
S144,NF-1103,18.0,2.0,3561.0,blue,Fiction,3,3,3,1.0,1.0,1269.0,0
S144,NF-1006,19.0,2.0,4349.0,red,Reality,3,3,3,1.0,1.0,1977.0,1
S144,NM-1104,20.0,2.0,4386.0,red,Reality,2,1,3,1.0,1.0,771.0,1
S144,NF-1046,21.0,2.0,4415.0,blue,Fiction,5,5,4,1.0,1.0,2259.0,-1
S144,NF-1109,22.0,2.0,7344.0,blue,Fiction,3,2,3,1.0,1.0,2235.0,1
S144,NM-1058,23.0,2.0,7943.0,red,Reality,4,3,5,1.0,1.0,1395.0,1
S144,NF-1054,24.0,2.0,5605.0,red,Reality,3,3,3,1.0,1.0,981.0,1
S144,NF-1044,25.0,2.0,6312.0,red,Reality,3,3,3,1.0,1.0,965.0,1
S144,NF-1026,26.0,2.0,8692.0,blue,Fiction,2,2,2,1.0,1.0,1259.0,-1
S144,NF-1056,27.0,2.0,4077.0,red,Reality,4,4,5,1.0,1.0,1872.0,-1
S144,NF-1022,28.0,2.0,2975.0,blue,Fiction,4,4,4,1.0,1.0,919.0,1
S144,NM-1011,29.0,2.0,5649.0,blue,Fiction,2,2,2,1.0,1.0,2202.0,-1
S144,NF-1095,30.0,2.0,5418.0,red,Reality,4,3,3,1.0,1.0,932.0,1
S144,NF-1008,31.0,2.0,4389.0,red,Reality,4,3,4,1.0,1.0,1785.0,0
S144,NF-1050,32.0,2.0,4125.0,blue,Fiction,4,3,4,1.0,1.0,754.0,0
S144,NF-1060,33.0,2.0,5184.0,red,Reality,3,2,3,1.0,1.0,1153.0,1
S144,NF-1063,34.0,2.0,4673.0,red,Reality,4,4,3,1.0,1.0,2394.0,-1
S144,NF-1051,35.0,2.0,4664.0,blue,Fiction,3,2,4,1.0,1.0,760.0,0
S144,NF-1082,36.0,2.0,5378.0,blue,Fiction,3,2,3,1.0,1.0,2044.0,-3
S144,NF-1066,37.0,2.0,4658.0,red,Reality,4,4,4,1.0,1.0,2273.0,1
S144,NM-1102,38.0,2.0,7599.0,blue,Fiction,2,2,2,1.0,1.0,1100.0,1
S144,NM-1038,39.0,2.0,3081.0,blue,Fiction,2,2,2,1.0,1.0,1751.0,0
S144,NF-1077,40.0,2.0,8601.0,red,Reality,2,2,3,1.0,1.0,1114.0,-1
S144,NF-1003,41.0,2.0,3746.0,blue,Fiction,4,3,3,1.0,1.0,921.0,1
S144,NF-1040,42.0,2.0,3414.0,blue,Fiction,3,3,2,1.0,1.0,1508.0,1
S144,NF-1016,43.0,2.0,3932.0,red,Reality,4,4,4,1.0,1.0,942.0,0
S144,NF-1015,44.0,2.0,3306.0,red,Reality,4,3,3,1.0,1.0,1411.0,0
S144,NF-1009,45.0,2.0,4781.0,red,Reality,4,3,4,1.0,1.0,1927.0,1
S144,NF-1096,46.0,2.0,3366.0,red,Reality,3,3,4,1.0,1.0,1510.0,0
S144,NF-1100,47.0,2.0,4589.0,red,Reality,4,4,4,1.0,1.0,6834.0,1
S144,NF-1061,48.0,2.0,4895.0,red,Reality,4,4,4,1.0,1.0,1363.0,1
S144,NF-1042,49.0,2.0,5337.0,blue,Fiction,3,4,4,1.0,1.0,819.0,0
S144,NF-1093,50.0,2.0,5059.0,red,Reality,3,2,4,1.0,1.0,1924.0,-1
S144,NF-1025,51.0,2.0,3184.0,red,Reality,2,2,3,1.0,1.0,1070.0,0
S144,NF-1057,52.0,2.0,5599.0,blue,Fiction,3,2,4,1.0,1.0,1875.0,-1
S144,NF-1049,53.0,2.0,3659.0,blue,Fiction,4,4,3,1.0,1.0,1426.0,0
S144,NF-1065,54.0,2.0,4653.0,blue,Fiction,4,4,5,1.0,1.0,867.0,0
S144,NF-1045,55.0,2.0,3733.0,red,Reality,3,3,3,1.0,1.0,1009.0,1
S144,NM-1027,56.0,2.0,4030.0,red,Reality,1,1,3,1.0,1.0,1407.0,1
S144,NF-1017,57.0,2.0,4015.0,red,Reality,3,3,3,1.0,1.0,1009.0,0
S144,NF-1023,58.0,2.0,5190.0,blue,Fiction,4,4,6,1.0,1.0,1315.0,1
S144,NF-1036,59.0,2.0,3634.0,red,Reality,5,4,4,1.0,1.0,2305.0,1
S144,NM-1070,60.0,2.0,6840.0,blue,Fiction,2,2,3,1.0,1.0,1010.0,-1
S144,NM-1029,61.0,2.0,7161.0,red,Reality,2,2,3,1.0,1.0,987.0,1
S144,NF-1059,62.0,2.0,4093.0,red,Reality,3,3,3,1.0,1.0,1021.0,0
S144,NF-1021,63.0,2.0,13746.0,red,Reality,4,3,3,1.0,1.0,1732.0,-2
S144,NF-1105,64.0,2.0,6543.0,red,Reality,3,3,3,1.0,1.0,1045.0,0
S144,NF-1024,65.0,2.0,3056.0,red,Reality,3,3,3,1.0,1.0,1120.0,0
S144,NM-1019,66.0,2.0,4078.0,blue,Fiction,2,2,3,1.0,1.0,2276.0,0
S144,NF-1041,67.0,2.0,3640.0,blue,Fiction,3,3,3,1.0,1.0,1855.0,1
S144,NF-1030,68.0,2.0,3839.0,blue,Fiction,3,3,3,1.0,1.0,889.0,0
S144,NF-1048,69.0,2.0,4370.0,red,Reality,4,3,3,1.0,1.0,788.0,-1
S144,NF-1110,70.0,2.0,4446.0,red,Reality,3,2,3,1.0,1.0,1394.0,1
S144,NF-1028,71.0,2.0,4819.0,blue,Fiction,3,3,3,1.0,1.0,1356.0,0
S144,NM-1092,72.0,2.0,5160.0,red,Reality,2,2,3,1.0,1.0,1101.0,0
S144,NF-1002,73.0,2.0,3824.0,blue,Fiction,4,3,4,1.0,1.0,913.0,0
S144,NF-1087,74.0,2.0,4048.0,blue,Fiction,2,2,2,1.0,1.0,2062.0,1
S144,NF-1047,75.0,2.0,4252.0,blue,Fiction,3,3,3,1.0,1.0,835.0,-1
S144,NM-1010,76.0,2.0,3475.0,red,Reality,2,2,2,1.0,1.0,1156.0,-1
S144,NF-1084,77.0,2.0,5230.0,red,Reality,5,5,4,1.0,1.0,1065.0,1
S144,NF-1039,78.0,2.0,4479.0,red,Reality,4,4,4,1.0,1.0,929.0,0
S144,NF-1072,79.0,2.0,4363.0,blue,Fiction,4,4,4,1.0,1.0,759.0,1
S144,NF-1094,80.0,2.0,4937.0,red,Reality,4,4,4,1.0,1.0,1284.0,1
S144,NF-1018,81.0,2.0,3150.0,red,Reality,4,4,5,1.0,1.0,852.0,0
S144,NF-1086,82.0,2.0,3749.0,blue,Fiction,3,3,3,1.0,1.0,891.0,0
S144,NF-1020,83.0,2.0,4350.0,red,Reality,3,3,3,1.0,1.0,1556.0,1
S144,NM-1033,84.0,2.0,11793.0,red,Reality,3,2,3,1.0,1.0,991.0,0
S144,NF-1068,85.0,2.0,4388.0,blue,Fiction,3,3,3,1.0,1.0,3388.0,1
S144,NF-1106,86.0,2.0,3436.0,blue,Fiction,4,4,3,1.0,1.0,4770.0,-1
S144,NF-1062,87.0,2.0,5184.0,red,Reality,3,3,4,1.0,1.0,1352.0,0
S144,NF-1081,88.0,2.0,4405.0,blue,Fiction,3,3,3,1.0,1.0,4721.0,0
S144,NF-1079,89.0,2.0,4366.0,red,Reality,4,3,3,1.0,1.0,1353.0,2
S144,NF-1067,90.0,2.0,5718.0,blue,Fiction,3,3,3,1.0,1.0,1443.0,-1
S144,NM-1035,91.0,2.0,8485.0,red,Reality,3,2,2,1.0,1.0,841.0,1
S144,NM-1064,92.0,2.0,5381.0,red,Reality,3,2,3,1.0,1.0,1107.0,0
S144,NF-1080,93.0,2.0,5159.0,blue,Fiction,3,4,4,1.0,1.0,2402.0,-1
S144,NM-1052,94.0,2.0,5245.0,red,Reality,2,1,3,1.0,1.0,1431.0,0
S144,NF-1085,95.0,2.0,4517.0,blue,Fiction,3,3,3,1.0,1.0,6446.0,0
S144,NF-1101,96.0,2.0,10247.0,red,Reality,4,3,4,1.0,1.0,1041.0,-1
S144,NF-1004,97.0,2.0,2927.0,blue,Fiction,3,3,4,1.0,1.0,2592.0,0
S144,NF-1043,98.0,2.0,5584.0,red,Reality,4,4,4,1.0,1.0,1377.0,1
S144,NF-1088,99.0,2.0,5539.0,red,Reality,3,4,4,1.0,1.0,1052.0,1
S144,NM-1055,100.0,2.0,3915.0,blue,Fiction,2,2,3,1.0,1.0,1486.0,2
S144,NF-1083,101.0,2.0,3460.0,blue,Fiction,3,3,3,1.0,1.0,1713.0,2
S144,NF-1073,102.0,2.0,4455.0,red,Reality,3,3,3,1.0,1.0,888.0,0
S144,NF-1098,103.0,2.0,3556.0,blue,Fiction,3,3,3,1.0,1.0,1105.0,0
S144,NM-1090,104.0,2.0,3214.0,blue,Fiction,3,3,3,1.0,1.0,1423.0,-1
S144,NF-1108,105.0,2.0,3557.0,blue,Fiction,4,4,3,1.0,1.0,1165.0,-1
S144,NF-1053,106.0,2.0,2560.0,blue,Fiction,3,3,3,1.0,1.0,1060.0,-1
S144,NF-1031,107.0,2.0,2425.0,blue,Fiction,3,3,2,1.0,1.0,979.0,1
S144,NF-1012,108.0,2.0,2487.0,red,Reality,2,2,3,1.0,1.0,1240.0,-1
S144,NF-1013,109.0,2.0,3407.0,red,Reality,3,3,3,1.0,1.0,1078.0,1
S177,NF-1024,1.0,2.0,15375.0,red,Reality,1,1,3,1.0,1.0,954.0,-2
S177,NM-1052,2.0,2.0,6776.0,blue,Fiction,1,1,1,1.0,1.0,1151.0,-2
S177,NF-1107,3.0,2.0,8965.0,blue,Fiction,2,1,1,1.0,1.0,1055.0,-3
S177,NF-1006,4.0,2.0,13347.0,red,Reality,1,2,1,1.0,1.0,996.0,3
S177,NF-1079,5.0,2.0,7623.0,blue,Fiction,4,4,3,1.0,1.0,2824.0,-1
S177,NF-1060,6.0,2.0,9929.0,red,Reality,2,1,3,1.0,1.0,1080.0,3
S177,NF-1009,7.0,2.0,4660.0,blue,Fiction,3,3,3,1.0,1.0,1300.0,-1
S177,NF-1063,8.0,2.0,6791.0,red,Reality,5,2,2,1.0,1.0,1122.0,-2
S177,NF-1105,9.0,2.0,5978.0,red,Reality,5,3,2,1.0,1.0,1299.0,2
S177,NF-1047,10.0,2.0,5523.0,blue,Fiction,4,4,3,1.0,1.0,2578.0,-1
S177,NF-1059,11.0,2.0,5526.0,red,Reality,3,4,3,1.0,1.0,3130.0,2
S177,NF-1026,12.0,2.0,11416.0,blue,Fiction,4,2,4,1.0,1.0,1671.0,3
S177,NF-1066,13.0,2.0,8686.0,red,Reality,4,4,3,1.0,1.0,1030.0,1
S177,NF-1098,14.0,2.0,5643.0,blue,Fiction,6,2,5,1.0,1.0,1522.0,3
S177,NF-1081,15.0,2.0,7948.0,blue,Fiction,3,1,3,1.0,1.0,1301.0,1
S177,NF-1067,16.0,2.0,7834.0,blue,Fiction,4,5,3,1.0,1.0,1749.0,0
S177,NF-1022,17.0,2.0,6028.0,blue,Fiction,3,3,3,1.0,1.0,3715.0,2
S177,NF-1020,18.0,2.0,14516.0,red,Reality,5,3,3,1.0,1.0,1134.0,3
S177,NF-1072,19.0,2.0,5531.0,blue,Fiction,5,5,4,1.0,1.0,1007.0,2
S177,NF-1088,20.0,2.0,6222.0,red,Reality,3,2,3,1.0,1.0,1416.0,0
S177,NF-1099,21.0,2.0,4886.0,blue,Fiction,3,1,1,1.0,1.0,1358.0,-1
S177,NF-1076,22.0,2.0,7459.0,red,Reality,6,3,1,1.0,1.0,1076.0,-3
S177,NF-1061,23.0,2.0,5391.0,red,Reality,5,4,6,1.0,1.0,1519.0,3
S177,NF-1082,24.0,2.0,6053.0,red,Reality,4,1,6,1.0,1.0,2321.0,1
S177,NF-1040,25.0,2.0,7004.0,red,Reality,1,1,3,1.0,1.0,1192.0,3
S177,NF-1065,26.0,2.0,7139.0,blue,Fiction,5,5,2,1.0,1.0,1626.0,0
S177,NM-1074,27.0,2.0,5619.0,red,Reality,5,0,5,1.0,1.0,1535.0,-1
S177,NF-1051,28.0,2.0,7696.0,blue,Fiction,1,1,3,1.0,1.0,1376.0,-2
S177,NM-1104,29.0,2.0,3399.0,blue,Fiction,0,0,0,1.0,1.0,1282.0,2
S177,NF-1073,30.0,2.0,4988.0,blue,Fiction,4,1,5,1.0,1.0,876.0,-3
S177,NF-1015,31.0,2.0,5676.0,red,Reality,5,4,3,1.0,1.0,1121.0,-3
S177,NF-1018,32.0,2.0,15874.0,blue,Fiction,6,5,2,1.0,1.0,1970.0,-2
S177,NF-1012,33.0,2.0,6000.0,red,Reality,1,1,2,1.0,1.0,2546.0,-2
S177,NF-1054,34.0,2.0,7556.0,blue,Fiction,2,4,1,1.0,1.0,1504.0,0
S177,NF-1036,35.0,2.0,6822.0,red,Reality,5,5,2,1.0,1.0,1123.0,-2
S177,NF-1109,36.0,2.0,5443.0,blue,Fiction,0,0,3,1.0,1.0,2497.0,3
S177,NF-1053,37.0,2.0,10368.0,red,Reality,2,1,2,1.0,1.0,1398.0,-2
S177,NF-1017,38.0,2.0,6972.0,red,Reality,1,1,4,1.0,1.0,2289.0,-2
S177,NF-1083,39.0,2.0,14881.0,blue,Fiction,3,4,5,1.0,1.0,956.0,3
S177,NM-1010,40.0,2.0,7328.0,red,Reality,4,0,4,1.0,1.0,1840.0,2
S177,NF-1021,41.0,2.0,10185.0,blue,Fiction,5,0,3,1.0,1.0,1664.0,3
S177,NF-1096,42.0,2.0,12744.0,red,Reality,2,3,3,1.0,1.0,2882.0,-1
S177,NF-1069,43.0,2.0,5457.0,red,Reality,1,0,1,1.0,1.0,2411.0,2
S177,NF-1071,44.0,2.0,3578.0,red,Reality,0,0,0,1.0,1.0,1794.0,2
S177,NF-1039,45.0,2.0,7263.0,blue,Fiction,5,4,0,1.0,1.0,998.0,0
S177,NF-1097,46.0,2.0,3975.0,blue,Fiction,5,6,1,1.0,1.0,977.0,-2
S177,NF-1087,47.0,2.0,4100.0,red,Reality,0,0,1,1.0,1.0,1807.0,-2
S177,NF-1089,48.0,2.0,5972.0,blue,Fiction,2,1,1,1.0,1.0,1142.0,-3
S177,NM-1058,49.0,2.0,8714.0,blue,Fiction,6,0,5,1.0,1.0,986.0,3
S177,NF-1030,50.0,2.0,4124.0,red,Reality,4,5,5,1.0,1.0,2830.0,2
S177,NF-1094,51.0,2.0,5955.0,red,Reality,3,4,3,1.0,1.0,3271.0,-2
S177,NF-1025,52.0,2.0,8944.0,red,Reality,1,1,3,1.0,1.0,3547.0,2
S177,NM-1102,53.0,2.0,5879.0,red,Reality,4,0,2,1.0,1.0,2997.0,-3
S177,NF-1048,54.0,2.0,7721.0,red,Reality,6,1,5,1.0,1.0,1732.0,-3
S177,NM-1092,55.0,2.0,2285.0,blue,Fiction,0,0,0,1.0,1.0,1387.0,-3
S177,NF-1004,56.0,2.0,4495.0,blue,Fiction,1,3,4,1.0,1.0,1059.0,3
S177,NF-1106,57.0,2.0,4966.0,red,Reality,5,5,2,1.0,1.0,1648.0,-1
S177,NF-1043,58.0,2.0,5516.0,blue,Fiction,5,0,3,1.0,1.0,1163.0,3
S177,NF-1042,59.0,2.0,3999.0,blue,Fiction,3,3,3,1.0,1.0,1254.0,2
S177,NF-1068,60.0,2.0,10080.0,red,Reality,5,4,4,1.0,1.0,991.0,3
S177,NF-1110,61.0,2.0,2959.0,blue,Fiction,0,0,0,1.0,1.0,1417.0,0
S177,NF-1023,62.0,2.0,4514.0,red,Reality,5,5,4,1.0,1.0,1289.0,3
S177,NF-1008,63.0,2.0,7225.0,blue,Fiction,3,3,3,1.0,1.0,2855.0,1
S177,NM-1019,64.0,2.0,11808.0,blue,Fiction,3,0,4,1.0,1.0,3006.0,1
S177,NF-1046,65.0,2.0,5068.0,blue,Fiction,4,5,3,1.0,1.0,1472.0,3
S177,NM-1064,66.0,2.0,4154.0,blue,Fiction,5,0,1,1.0,1.0,1061.0,3
S177,NF-1032,67.0,2.0,12787.0,red,Reality,4,4,4,1.0,1.0,2522.0,2
S177,NM-1055,68.0,2.0,4924.0,blue,Fiction,4,0,0,1.0,1.0,3756.0,1
S177,NM-1070,69.0,2.0,9140.0,red,Reality,5,0,5,1.0,1.0,3355.0,2
S177,NF-1005,70.0,2.0,3024.0,blue,Fiction,0,0,0,1.0,1.0,1757.0,3
S177,NF-1034,71.0,2.0,7869.0,red,Reality,4,0,0,1.0,1.0,1633.0,2
S177,NF-1086,72.0,2.0,6837.0,red,Reality,5,4,4,1.0,1.0,1925.0,-1
S177,NM-1007,73.0,2.0,4957.0,red,Reality,3,0,3,1.0,1.0,748.0,3
S177,NF-1037,74.0,2.0,5774.0,blue,Fiction,4,4,3,1.0,1.0,1663.0,2
S177,NM-1029,75.0,2.0,5712.0,blue,Fiction,6,0,4,1.0,1.0,1382.0,3
S177,NF-1044,76.0,2.0,10884.0,red,Reality,0,0,0,1.0,1.0,1166.0,-1
S177,NM-1038,77.0,2.0,4170.0,red,Reality,6,0,4,1.0,1.0,1875.0,3
S177,NM-1035,78.0,2.0,16709.0,red,Reality,6,1,4,1.0,1.0,1013.0,3
S177,NF-1049,79.0,2.0,5240.0,blue,Fiction,4,4,3,1.0,1.0,1774.0,2
S177,NM-1027,80.0,2.0,3065.0,red,Reality,0,0,0,1.0,1.0,1098.0,0
S177,NF-1108,81.0,2.0,4423.0,red,Reality,4,4,2,1.0,1.0,1399.0,-2
S177,NF-1100,82.0,2.0,7644.0,red,Reality,2,3,3,1.0,1.0,2000.0,1
S177,NF-1041,83.0,2.0,5274.0,red,Reality,5,5,5,1.0,1.0,1224.0,3
S177,NF-1028,84.0,2.0,7544.0,blue,Fiction,4,4,1,1.0,1.0,4335.0,2
S177,NF-1077,85.0,2.0,6985.0,red,Reality,5,0,3,1.0,1.0,1125.0,2
S177,NF-1013,86.0,2.0,7206.0,red,Reality,4,1,1,1.0,1.0,2240.0,2
S177,NM-1091,87.0,2.0,6584.0,blue,Fiction,4,0,5,1.0,1.0,1339.0,3
S177,NF-1095,88.0,2.0,4706.0,blue,Fiction,0,0,0,1.0,1.0,2734.0,0
S177,NF-1084,89.0,2.0,7662.0,red,Reality,4,1,3,1.0,1.0,1738.0,-2
S177,NF-1045,90.0,2.0,5733.0,blue,Fiction,2,0,1,1.0,1.0,1633.0,-2
S177,NF-1103,91.0,2.0,15816.0,blue,Fiction,0,0,3,1.0,1.0,1079.0,3
S177,NM-1011,92.0,2.0,15095.0,red,Reality,3,0,3,1.0,1.0,1293.0,3
S177,NF-1062,93.0,2.0,8488.0,blue,Fiction,2,3,5,1.0,1.0,1959.0,3
S177,NF-1031,94.0,2.0,4201.0,blue,Fiction,0,0,0,1.0,1.0,2025.0,1
S177,NF-1057,95.0,2.0,5333.0,blue,Fiction,5,0,0,1.0,1.0,1295.0,3
S177,NM-1090,96.0,2.0,7144.0,red,Reality,4,0,1,1.0,1.0,1363.0,1
S177,NF-1101,97.0,2.0,13027.0,blue,Fiction,3,4,5,1.0,1.0,1174.0,3
S177,NF-1003,98.0,2.0,12993.0,red,Reality,3,3,4,1.0,1.0,1125.0,3
S177,NF-1080,99.0,2.0,7655.0,blue,Fiction,5,4,2,1.0,1.0,2470.0,-3
S177,NF-1056,100.0,2.0,8677.0,blue,Fiction,3,1,2,1.0,1.0,2124.0,2
S177,NF-1050,101.0,2.0,12675.0,blue,Fiction,1,0,3,1.0,1.0,1235.0,-2
S177,NF-1093,102.0,2.0,7874.0,red,Reality,4,0,4,1.0,1.0,1124.0,3
S177,NF-1085,103.0,2.0,7676.0,blue,Fiction,4,1,4,1.0,1.0,947.0,2
S177,NM-1033,104.0,2.0,5631.0,blue,Fiction,1,0,0,1.0,1.0,983.0,3
S177,NF-1075,105.0,2.0,6590.0,red,Reality,0,0,1,1.0,1.0,2703.0,0
S177,NF-1002,106.0,2.0,4754.0,red,Reality,1,1,1,1.0,1.0,1099.0,3
S177,NF-1001,107.0,2.0,4071.0,red,Reality,0,0,0,1.0,1.0,1175.0,2
S177,NF-1016,108.0,2.0,10235.0,red,Reality,5,2,4,1.0,1.0,2243.0,-1
S177,NF-1014,109.0,2.0,7717.0,blue,Fiction,1,0,5,1.0,1.0,1113.0,3
S103,NF-1017,1.0,2.0,6218.0,blue,Reality,4,4,4,1.0,1.0,1377.0,-2
S103,NM-1090,2.0,2.0,3881.0,red,Fiction,4,4,4,1.0,1.0,3890.0,2
S103,NM-1064,3.0,2.0,2703.0,red,Fiction,4,4,4,1.0,1.0,7419.0,1
S103,NF-1099,4.0,2.0,2856.0,red,Fiction,4,4,4,1.0,1.0,1295.0,-2
S103,NF-1012,5.0,2.0,4965.0,blue,Reality,4,4,4,1.0,1.0,1325.0,-2
S103,NF-1097,6.0,2.0,2254.0,blue,Reality,4,4,4,1.0,1.0,3785.0,-2
S103,NF-1018,7.0,2.0,2345.0,blue,Reality,4,4,4,1.0,1.0,1646.0,2
S103,NF-1073,8.0,2.0,1988.0,blue,Reality,4,4,4,1.0,1.0,2080.0,1
S103,NF-1060,9.0,2.0,2890.0,red,Fiction,4,4,4,1.0,1.0,1244.0,-2
S103,NF-1013,10.0,2.0,1979.0,blue,Reality,4,4,4,1.0,1.0,1317.0,1
S103,NM-1007,11.0,2.0,2105.0,red,Fiction,4,4,4,1.0,1.0,1206.0,1
S103,NF-1096,12.0,2.0,3755.0,blue,Reality,4,4,4,1.0,1.0,1172.0,-2
S103,NM-1102,13.0,2.0,1947.0,blue,Reality,4,4,4,1.0,1.0,5073.0,-1
S103,NM-1010,14.0,2.0,1983.0,red,Fiction,4,4,4,1.0,1.0,1124.0,-2
S103,NF-1056,15.0,2.0,2376.0,red,Fiction,4,4,4,1.0,1.0,1211.0,1
S103,NF-1040,16.0,2.0,2040.0,blue,Reality,4,4,4,1.0,1.0,1833.0,1
S103,NM-1027,17.0,2.0,2501.0,blue,Reality,4,4,4,1.0,1.0,1492.0,2
S103,NF-1076,18.0,2.0,2790.0,red,Fiction,4,4,4,1.0,1.0,1721.0,-2
S103,NM-1033,19.0,2.0,2314.0,blue,Reality,4,4,4,1.0,1.0,1511.0,1
S103,NF-1006,20.0,2.0,4038.0,red,Fiction,4,4,4,1.0,1.0,2353.0,1
S103,NF-1100,21.0,2.0,2912.0,blue,Reality,4,4,4,1.0,1.0,1702.0,-1
S103,NF-1071,22.0,2.0,2134.0,red,Fiction,4,4,4,1.0,1.0,1170.0,-2
S103,NF-1059,23.0,2.0,2473.0,red,Fiction,4,4,4,1.0,1.0,1083.0,2
S103,NM-1019,24.0,2.0,1873.0,blue,Reality,4,4,4,1.0,1.0,2480.0,-2
S103,NF-1066,25.0,2.0,2581.0,red,Fiction,4,4,4,1.0,1.0,1332.0,-2
S103,NF-1094,26.0,2.0,1852.0,blue,Reality,4,4,4,1.0,1.0,3497.0,-2
S103,NF-1003,27.0,2.0,1981.0,blue,Reality,4,4,4,1.0,1.0,1132.0,2
S103,NF-1046,28.0,2.0,1663.0,red,Fiction,4,4,4,1.0,1.0,6294.0,-1
S103,NF-1044,29.0,2.0,2712.0,red,Fiction,4,4,4,1.0,1.0,1263.0,-2
S103,NF-1095,30.0,2.0,1977.0,red,Fiction,4,4,4,1.0,1.0,1307.0,-1
S103,NF-1030,31.0,2.0,1925.0,red,Fiction,4,4,4,1.0,1.0,1064.0,-2
S103,NF-1098,32.0,2.0,3349.0,blue,Reality,4,4,4,1.0,1.0,1179.0,1
S103,NF-1051,33.0,2.0,3437.0,blue,Reality,4,4,4,1.0,1.0,1481.0,1
S103,NF-1067,34.0,2.0,3528.0,blue,Reality,4,4,4,1.0,1.0,1912.0,-1
S103,NF-1057,35.0,2.0,2775.0,red,Fiction,4,4,4,1.0,1.0,1554.0,1
S103,NM-1011,36.0,2.0,2350.0,blue,Reality,4,4,4,1.0,1.0,1683.0,1
S103,NF-1054,37.0,2.0,1940.0,blue,Reality,4,4,5,1.0,1.0,1359.0,-1
S103,NF-1061,38.0,2.0,2056.0,blue,Reality,4,4,4,1.0,1.0,1737.0,1
S103,NF-1002,39.0,2.0,2344.0,blue,Reality,4,4,4,1.0,1.0,1386.0,2
S103,NF-1023,40.0,2.0,2222.0,red,Fiction,4,4,4,1.0,1.0,1650.0,-2
S103,NF-1072,41.0,2.0,2010.0,blue,Reality,4,4,4,1.0,1.0,2598.0,-2
S103,NM-1058,42.0,2.0,2589.0,blue,Reality,4,4,4,1.0,1.0,1583.0,1
S103,NF-1016,43.0,2.0,7681.0,blue,Reality,4,4,4,1.0,1.0,1547.0,1
S103,NF-1053,44.0,2.0,2735.0,red,Fiction,4,4,4,1.0,1.0,2069.0,-1
S103,NF-1106,45.0,2.0,2010.0,blue,Reality,4,4,4,1.0,1.0,1057.0,1
S103,NF-1080,46.0,2.0,2241.0,blue,Reality,4,4,4,1.0,1.0,1682.0,-1
S103,NF-1021,47.0,2.0,2138.0,red,Fiction,4,4,4,1.0,1.0,1083.0,-1
S103,NF-1024,48.0,2.0,2402.0,blue,Reality,4,4,4,1.0,1.0,1186.0,-2
S103,NF-1105,49.0,2.0,2854.0,blue,Reality,4,4,4,1.0,1.0,941.0,2
S103,NM-1070,50.0,2.0,2105.0,red,Fiction,4,4,4,1.0,1.0,2750.0,2
S103,NF-1047,51.0,2.0,1914.0,blue,Reality,4,4,4,1.0,1.0,1707.0,-2
S103,NM-1029,52.0,2.0,2019.0,red,Fiction,4,4,4,1.0,1.0,1178.0,2
S103,NM-1104,53.0,2.0,3117.0,blue,Reality,4,4,4,1.0,1.0,1641.0,-1
S103,NF-1032,54.0,2.0,2597.0,blue,Reality,4,4,4,1.0,1.0,1934.0,1
S103,NF-1063,55.0,2.0,3345.0,red,Fiction,4,4,4,1.0,1.0,1119.0,1
S103,NF-1077,56.0,2.0,2374.0,red,Fiction,4,4,4,1.0,1.0,1534.0,1
S103,NF-1025,57.0,2.0,3939.0,red,Fiction,4,4,4,1.0,1.0,1218.0,-1
S103,NM-1035,58.0,2.0,2090.0,red,Fiction,4,4,4,1.0,1.0,2572.0,-1
S103,NF-1081,59.0,2.0,2133.0,blue,Reality,4,4,4,1.0,1.0,1533.0,-2
S103,NF-1022,60.0,2.0,2617.0,red,Fiction,4,4,4,1.0,1.0,1497.0,1
S103,NM-1092,61.0,2.0,3936.0,blue,Reality,4,4,4,1.0,1.0,1638.0,1
S103,NF-1015,62.0,2.0,3025.0,blue,Reality,4,4,4,1.0,1.0,1145.0,-2
S103,NF-1042,63.0,2.0,2390.0,blue,Reality,4,4,4,1.0,1.0,1703.0,2
S103,NF-1110,64.0,2.0,2668.0,blue,Reality,4,4,4,1.0,1.0,1815.0,1
S103,NF-1069,65.0,2.0,4700.0,blue,Reality,4,4,4,1.0,1.0,1299.0,1
S103,NF-1043,66.0,2.0,2071.0,red,Fiction,4,4,4,1.0,1.0,1430.0,-2
S103,NF-1037,67.0,2.0,3294.0,red,Fiction,4,4,4,1.0,1.0,1220.0,1
S103,NF-1049,68.0,2.0,2183.0,blue,Reality,4,4,4,1.0,1.0,1397.0,1
S103,NM-1055,69.0,2.0,2461.0,blue,Reality,4,4,4,1.0,1.0,1432.0,1
S103,NF-1045,70.0,2.0,2669.0,red,Fiction,4,4,4,1.0,1.0,1321.0,-2
S103,NF-1005,71.0,2.0,2429.0,blue,Reality,4,4,4,1.0,1.0,1810.0,2
S103,NF-1083,72.0,2.0,2227.0,red,Fiction,4,4,4,1.0,1.0,1416.0,1
S103,NF-1075,73.0,2.0,1998.0,red,Fiction,4,4,4,1.0,1.0,1860.0,-1
S103,NF-1020,74.0,2.0,2020.0,blue,Reality,4,4,4,1.0,1.0,1351.0,-1
S103,NF-1014,75.0,2.0,2042.0,red,Fiction,4,4,4,1.0,1.0,1477.0,2
S103,NF-1004,76.0,2.0,2244.0,red,Fiction,4,4,4,1.0,1.0,4206.0,2
S103,NF-1068,77.0,2.0,1936.0,blue,Reality,4,4,4,1.0,1.0,1274.0,-2
S103,NF-1089,78.0,2.0,1785.0,red,Fiction,4,4,4,1.0,1.0,1623.0,-2
S103,NF-1107,79.0,2.0,1705.0,red,Fiction,4,4,4,1.0,1.0,1204.0,-2
S103,NF-1101,80.0,2.0,2330.0,blue,Reality,4,4,4,1.0,1.0,1302.0,2
S103,NF-1088,81.0,2.0,2466.0,red,Fiction,4,4,4,1.0,1.0,2355.0,1
S103,NF-1039,82.0,2.0,3209.0,blue,Reality,4,4,4,1.0,1.0,1437.0,1
S103,NF-1026,83.0,2.0,3328.0,blue,Reality,4,4,4,1.0,1.0,1500.0,2
S103,NF-1109,84.0,2.0,3357.0,red,Fiction,4,4,4,1.0,1.0,1651.0,-2
S103,NF-1028,85.0,2.0,2290.0,red,Fiction,4,4,4,1.0,1.0,1362.0,-2
S103,NF-1008,86.0,2.0,2227.0,blue,Reality,4,4,4,1.0,1.0,1581.0,2
S103,NF-1050,87.0,2.0,2155.0,blue,Reality,4,4,4,1.0,1.0,1144.0,-1
S103,NM-1091,88.0,2.0,2575.0,red,Fiction,4,4,4,1.0,1.0,2172.0,1
S103,NF-1084,89.0,2.0,1882.0,red,Fiction,4,4,4,1.0,1.0,1689.0,-1
S103,NF-1036,90.0,2.0,1829.0,blue,Reality,4,4,4,1.0,1.0,1140.0,1
S103,NF-1034,91.0,2.0,2890.0,blue,Reality,4,4,4,1.0,1.0,1966.0,1
S103,NF-1031,92.0,2.0,3098.0,red,Fiction,4,4,4,1.0,1.0,1451.0,-2
S103,NF-1048,93.0,2.0,2496.0,red,Fiction,4,4,4,1.0,1.0,1262.0,2
S103,NF-1041,94.0,2.0,4166.0,red,Fiction,4,4,4,1.0,1.0,1214.0,1
S103,NF-1085,95.0,2.0,2006.0,red,Fiction,4,4,4,1.0,1.0,1234.0,1
S103,NF-1103,96.0,2.0,2190.0,red,Fiction,4,4,4,1.0,1.0,1504.0,-2
S103,NF-1082,97.0,2.0,2262.0,blue,Reality,4,4,4,1.0,1.0,1533.0,2
S103,NF-1079,98.0,2.0,2615.0,red,Fiction,4,4,4,1.0,1.0,1306.0,-1
S103,NF-1009,99.0,2.0,3133.0,red,Fiction,4,4,4,1.0,1.0,1300.0,1
S103,NM-1052,100.0,2.0,3084.0,red,Fiction,4,4,4,1.0,1.0,1372.0,1
S103,NM-1038,101.0,2.0,2115.0,red,Fiction,4,4,4,1.0,1.0,1246.0,-2
S103,NM-1074,102.0,2.0,2107.0,blue,Reality,4,4,4,1.0,1.0,2036.0,1
S103,NF-1086,103.0,2.0,2193.0,blue,Reality,4,4,4,1.0,1.0,1632.0,-2
S103,NF-1093,104.0,2.0,2371.0,red,Fiction,4,4,4,1.0,1.0,1936.0,1
S103,NF-1001,105.0,2.0,2126.0,red,Fiction,4,4,4,1.0,1.0,1718.0,-1
S103,NF-1065,106.0,2.0,1981.0,red,Fiction,4,4,4,1.0,1.0,1358.0,2
S103,NF-1108,107.0,2.0,4261.0,blue,Reality,4,4,4,1.0,1.0,1395.0,-1
S103,NF-1062,108.0,2.0,1991.0,red,Fiction,4,4,4,1.0,1.0,1275.0,2
S103,NF-1087,109.0,2.0,2228.0,blue,Reality,4,4,4,1.0,1.0,1527.0,2
S086,NF-1076,1.0,2.0,5621.0,blue,Fiction,4,4,3,1.0,1.0,1661.0,-3
S086,NM-1058,2.0,2.0,5292.0,green,Reality,3,2,5,1.0,1.0,2111.0,0
S086,NF-1030,3.0,2.0,5890.0,blue,Fiction,5,5,4,1.0,1.0,1135.0,-2
S086,NF-1084,4.0,2.0,8245.0,green,Reality,4,4,3,1.0,1.0,1288.0,-1
S086,NM-1038,5.0,2.0,3785.0,blue,Fiction,3,4,3,1.0,1.0,1179.0,-3
S086,NF-1095,6.0,2.0,4221.0,green,Reality,5,5,4,1.0,1.0,1275.0,-2
S086,NF-1075,7.0,2.0,5232.0,green,Reality,4,3,4,1.0,1.0,1163.0,-1
S086,NM-1102,8.0,2.0,4805.0,blue,Fiction,3,2,3,1.0,1.0,1387.0,-1
S086,NF-1026,9.0,2.0,3848.0,blue,Fiction,2,2,2,1.0,1.0,1369.0,-1
S086,NF-1097,10.0,2.0,3697.0,green,Reality,4,5,4,1.0,1.0,824.0,-3
S086,NF-1071,11.0,2.0,3808.0,blue,Fiction,3,3,3,1.0,1.0,969.0,-3
S086,NF-1082,12.0,2.0,4681.0,green,Reality,4,4,5,1.0,1.0,1322.0,-2
S086,NF-1067,13.0,2.0,4309.0,blue,Fiction,2,2,3,1.0,1.0,1304.0,-3
S086,NF-1066,14.0,2.0,4844.0,blue,Fiction,4,3,4,1.0,1.0,1528.0,-1
S086,NF-1088,15.0,2.0,4658.0,green,Reality,4,3,4,1.0,1.0,1130.0,-2
S086,NF-1061,16.0,2.0,6046.0,blue,Fiction,4,3,3,1.0,1.0,1450.0,0
S086,NF-1089,17.0,2.0,4468.0,green,Reality,4,4,4,1.0,1.0,1056.0,-3
S086,NF-1031,18.0,2.0,3927.0,blue,Fiction,3,2,3,1.0,1.0,2127.0,-1
S086,NF-1077,19.0,2.0,4870.0,green,Reality,2,2,3,1.0,1.0,1286.0,-2
S086,NF-1073,20.0,2.0,3906.0,blue,Fiction,4,4,4,1.0,1.0,1314.0,-2
S086,NF-1059,21.0,2.0,4155.0,green,Reality,2,2,2,1.0,1.0,1535.0,0
S086,NF-1045,22.0,2.0,4091.0,green,Reality,4,4,4,1.0,1.0,1521.0,1
S086,NF-1101,23.0,2.0,4714.0,blue,Fiction,5,5,3,1.0,1.0,1243.0,-3
S086,NM-1091,24.0,2.0,3928.0,blue,Fiction,3,4,3,1.0,1.0,1119.0,-2
S086,NF-1096,25.0,2.0,5000.0,blue,Fiction,4,4,4,1.0,1.0,1293.0,-3
S086,NF-1024,26.0,2.0,3906.0,green,Reality,2,3,3,1.0,1.0,1098.0,0
S086,NF-1043,27.0,2.0,4356.0,blue,Fiction,4,4,3,1.0,1.0,1957.0,-2
S086,NM-1052,28.0,2.0,4094.0,green,Reality,3,4,3,1.0,1.0,1022.0,0
S086,NF-1008,29.0,2.0,4602.0,blue,Fiction,6,5,4,1.0,1.0,1442.0,1
S086,NF-1025,30.0,2.0,4528.0,green,Reality,3,3,3,1.0,1.0,1089.0,-1
S086,NF-1047,31.0,2.0,5227.0,green,Reality,3,3,3,1.0,1.0,1694.0,-1
S086,NF-1057,32.0,2.0,5156.0,green,Reality,0,0,1,1.0,1.0,2256.0,-1
S086,NM-1104,33.0,2.0,5140.0,blue,Fiction,3,2,2,1.0,1.0,1266.0,1
S086,NF-1079,34.0,2.0,3138.0,green,Reality,5,5,3,1.0,1.0,1484.0,-3
S086,NF-1037,35.0,2.0,3060.0,blue,Fiction,2,3,2,1.0,1.0,1244.0,-1
S086,NF-1060,36.0,2.0,2956.0,blue,Fiction,2,2,3,1.0,1.0,1351.0,0
S086,NF-1110,37.0,2.0,3732.0,green,Reality,3,3,3,1.0,1.0,1170.0,-2
S086,NF-1094,38.0,2.0,2325.0,green,Reality,5,5,3,1.0,1.0,1272.0,-2
S086,NF-1014,39.0,2.0,4621.0,green,Reality,4,4,3,1.0,1.0,1061.0,1
S086,NM-1007,40.0,2.0,2966.0,blue,Fiction,2,2,3,1.0,1.0,1153.0,0
S086,NM-1035,41.0,2.0,3889.0,green,Reality,3,3,2,1.0,1.0,1546.0,0
S086,NF-1063,42.0,2.0,4812.0,green,Reality,3,4,3,1.0,1.0,1165.0,-2
S086,NF-1034,43.0,2.0,6148.0,blue,Fiction,3,3,3,1.0,1.0,1035.0,0
S086,NF-1020,44.0,2.0,3521.0,blue,Fiction,5,5,4,1.0,1.0,2017.0,-1
S086,NF-1081,45.0,2.0,7112.0,green,Reality,2,2,1,1.0,1.0,1356.0,-2
S086,NF-1080,46.0,2.0,3954.0,green,Reality,2,3,2,1.0,1.0,1742.0,-2
S086,NF-1005,47.0,2.0,3440.0,blue,Fiction,3,2,3,1.0,1.0,937.0,-2
S086,NF-1041,48.0,2.0,3610.0,green,Reality,4,4,4,1.0,1.0,1488.0,0
S086,NF-1004,49.0,2.0,3939.0,blue,Fiction,4,3,5,1.0,1.0,1450.0,3
S086,NF-1062,50.0,2.0,3849.0,blue,Fiction,5,6,4,1.0,1.0,1401.0,-3
S086,NM-1011,51.0,2.0,4089.0,green,Reality,3,4,3,1.0,1.0,1231.0,-1
S086,NF-1032,52.0,2.0,3827.0,green,Reality,5,5,4,1.0,1.0,1063.0,-2
S086,NF-1051,53.0,2.0,3962.0,green,Reality,4,5,3,1.0,1.0,950.0,-2
S086,NF-1021,54.0,2.0,3442.0,green,Reality,3,4,3,1.0,1.0,1108.0,-1
S086,NM-1092,55.0,2.0,5234.0,green,Reality,3,3,3,1.0,1.0,1185.0,-1
S086,NF-1107,56.0,2.0,3185.0,blue,Fiction,4,3,3,1.0,1.0,1140.0,-2
S086,NF-1015,57.0,2.0,3473.0,blue,Fiction,5,5,4,1.0,1.0,845.0,-3
S086,NF-1072,58.0,2.0,3962.0,blue,Fiction,5,5,4,1.0,1.0,1181.0,-2
S086,NM-1064,59.0,2.0,3769.0,blue,Fiction,3,3,2,1.0,1.0,1136.0,2
S086,NF-1050,60.0,2.0,4678.0,green,Reality,3,3,3,1.0,1.0,992.0,-2
S086,NM-1090,61.0,2.0,3010.0,green,Reality,2,2,1,1.0,1.0,1416.0,1
S086,NF-1013,62.0,2.0,2996.0,green,Reality,4,4,3,1.0,1.0,1111.0,-1
S086,NF-1086,63.0,2.0,3004.0,green,Reality,4,4,4,1.0,1.0,802.0,-3
S086,NF-1044,64.0,2.0,5051.0,blue,Fiction,4,3,2,1.0,1.0,1109.0,0
S086,NF-1108,65.0,2.0,4869.0,blue,Fiction,4,4,3,1.0,1.0,1179.0,-3
S086,NF-1023,66.0,2.0,3468.0,green,Reality,2,3,2,1.0,1.0,1082.0,-2
S086,NF-1018,67.0,2.0,4308.0,blue,Fiction,3,3,3,1.0,1.0,2282.0,-2
S086,NM-1029,68.0,2.0,4837.0,green,Reality,4,4,3,1.0,1.0,1342.0,-1
S086,NF-1009,69.0,2.0,3528.0,green,Reality,4,4,5,1.0,1.0,1179.0,-2
S086,NF-1046,70.0,2.0,2873.0,blue,Fiction,4,4,2,1.0,1.0,974.0,-3
S086,NF-1040,71.0,2.0,4700.0,blue,Fiction,4,4,3,1.0,1.0,1308.0,1
S086,NF-1003,72.0,2.0,3373.0,blue,Fiction,4,4,3,1.0,1.0,917.0,-3
S086,NM-1074,73.0,2.0,3533.0,blue,Fiction,4,4,3,1.0,1.0,1472.0,-1
S086,NF-1098,74.0,2.0,3124.0,blue,Fiction,5,5,3,1.0,1.0,919.0,-3
S086,NF-1109,75.0,2.0,3888.0,blue,Fiction,2,2,1,1.0,1.0,3145.0,-1
S086,NF-1039,76.0,2.0,3757.0,blue,Fiction,2,2,3,1.0,1.0,2931.0,3
S086,NF-1065,77.0,2.0,3353.0,green,Reality,3,3,4,1.0,1.0,972.0,0
S086,NF-1002,78.0,2.0,9334.0,blue,Fiction,3,3,4,1.0,1.0,879.0,0
S086,NF-1093,79.0,2.0,3777.0,blue,Fiction,3,3,2,1.0,1.0,933.0,-1
S086,NM-1027,80.0,2.0,3839.0,green,Reality,3,3,2,1.0,1.0,1038.0,-1
S086,NF-1056,81.0,2.0,3849.0,green,Reality,3,4,4,1.0,1.0,1148.0,-3
S086,NF-1048,82.0,2.0,4510.0,blue,Fiction,4,3,3,1.0,1.0,1129.0,-1
S086,NF-1083,83.0,2.0,2938.0,green,Reality,3,3,3,1.0,1.0,1123.0,-2
S086,NF-1087,84.0,2.0,5280.0,blue,Fiction,2,2,1,1.0,1.0,1127.0,0
S086,NF-1103,85.0,2.0,5540.0,blue,Fiction,2,1,1,1.0,1.0,861.0,-2
S086,NF-1028,86.0,2.0,3505.0,blue,Fiction,4,4,3,1.0,1.0,1235.0,-2
S086,NF-1099,87.0,2.0,4323.0,blue,Fiction,4,4,3,1.0,1.0,906.0,-1
S086,NF-1069,88.0,2.0,3414.0,green,Reality,3,3,3,1.0,1.0,1383.0,2
S086,NF-1100,89.0,2.0,2619.0,green,Reality,4,4,4,1.0,1.0,1456.0,-2
S086,NF-1105,90.0,2.0,4295.0,green,Reality,5,4,3,1.0,1.0,891.0,-2
S086,NF-1054,91.0,2.0,3814.0,green,Reality,3,3,2,1.0,1.0,990.0,-1
S086,NF-1042,92.0,2.0,3475.0,green,Reality,5,5,4,1.0,1.0,968.0,-3
S086,NF-1106,93.0,2.0,4555.0,blue,Fiction,6,6,5,1.0,1.0,832.0,-3
S086,NM-1010,94.0,2.0,3109.0,green,Reality,2,2,2,1.0,1.0,1094.0,-2
S086,NF-1085,95.0,2.0,4131.0,green,Reality,4,4,3,1.0,1.0,1024.0,0
S086,NF-1053,96.0,2.0,3569.0,blue,Fiction,4,3,3,1.0,1.0,1096.0,0
S086,NM-1019,97.0,2.0,4586.0,blue,Fiction,3,4,4,1.0,1.0,1001.0,-1
S086,NF-1016,98.0,2.0,2995.0,green,Reality,4,4,3,1.0,1.0,882.0,-2
S086,NF-1022,99.0,2.0,3121.0,green,Reality,2,2,2,1.0,1.0,995.0,-1
S086,NF-1068,100.0,2.0,3353.0,blue,Fiction,3,3,3,1.0,1.0,780.0,-2
S086,NF-1001,101.0,2.0,3447.0,blue,Fiction,4,3,3,1.0,1.0,1226.0,1
S086,NF-1006,102.0,2.0,3721.0,green,Reality,3,3,3,1.0,1.0,4698.0,0
S086,NM-1033,103.0,2.0,3292.0,green,Reality,4,3,2,1.0,1.0,974.0,1
S086,NF-1012,104.0,2.0,4719.0,green,Reality,3,3,2,1.0,1.0,1038.0,-3
S086,NF-1017,105.0,2.0,2993.0,green,Reality,4,4,3,1.0,1.0,1249.0,-1
S086,NF-1036,106.0,2.0,3581.0,blue,Fiction,4,4,3,1.0,1.0,1437.0,1
S086,NF-1049,107.0,2.0,3956.0,green,Reality,3,3,3,1.0,1.0,920.0,-2
S086,NM-1055,108.0,2.0,4447.0,blue,Fiction,3,3,3,1.0,1.0,981.0,-1
S086,NM-1070,109.0,2.0,2948.0,blue,Fiction,2,2,2,1.0,1.0,1686.0,-1
S192,NF-1009,1.0,2.0,30151.0,red,Reality,3,1,4,1.0,1.0,813.0,-3
S192,NF-1008,2.0,2.0,21368.0,green,Fiction,3,1,2,1.0,1.0,1678.0,-3
S192,NM-1019,3.0,2.0,38486.0,green,Fiction,2,2,5,1.0,1.0,2069.0,3
S192,NM-1104,4.0,2.0,28084.0,green,Fiction,1,1,6,1.0,1.0,3176.0,-1
S192,NF-1084,5.0,2.0,17209.0,green,Fiction,4,3,3,1.0,1.0,1557.0,-1
S192,NF-1013,6.0,2.0,24748.0,green,Fiction,3,3,3,1.0,1.0,2236.0,-3
S192,NM-1010,7.0,2.0,40861.0,green,Fiction,1,0,4,1.0,1.0,1398.0,3
S192,NF-1006,8.0,2.0,10487.0,red,Reality,1,1,5,1.0,1.0,1086.0,2
S192,NF-1046,9.0,2.0,12006.0,red,Reality,4,3,2,1.0,1.0,3748.0,-1
S192,NF-1014,10.0,2.0,11122.0,green,Fiction,3,1,2,1.0,1.0,4270.0,-1
S192,NF-1107,11.0,2.0,10647.0,green,Fiction,1,1,1,1.0,1.0,1592.0,-3
S192,NF-1015,12.0,2.0,10279.0,red,Reality,4,3,3,1.0,1.0,3324.0,-3
S192,NF-1103,13.0,2.0,35219.0,green,Fiction,1,0,2,1.0,1.0,1442.0,0
S192,NF-1082,14.0,2.0,30946.0,green,Fiction,2,1,4,1.0,1.0,2835.0,1
S192,NM-1035,15.0,2.0,17754.0,red,Reality,3,3,4,1.0,1.0,1649.0,2
S192,NF-1051,16.0,2.0,14616.0,green,Fiction,1,1,3,1.0,1.0,2135.0,-1
S192,NF-1101,17.0,2.0,19590.0,red,Reality,2,2,3,1.0,1.0,979.0,-1
S192,NF-1077,18.0,2.0,17957.0,green,Fiction,3,2,2,1.0,1.0,891.0,-3
S192,NF-1004,19.0,2.0,10884.0,green,Fiction,3,2,5,1.0,1.0,2167.0,2
S192,NF-1099,20.0,2.0,19154.0,red,Reality,3,3,3,1.0,1.0,1359.0,-1
S192,NF-1050,21.0,2.0,12207.0,green,Fiction,2,1,2,1.0,1.0,1616.0,3
S192,NF-1047,22.0,2.0,4865.0,red,Reality,1,1,3,1.0,1.0,1317.0,-2
S192,NF-1108,23.0,2.0,7838.0,red,Reality,3,3,2,1.0,1.0,2527.0,1
S192,NF-1021,24.0,2.0,4530.0,red,Reality,1,0,3,1.0,1.0,4942.0,1
S192,NF-1056,25.0,2.0,9955.0,red,Reality,3,2,4,1.0,1.0,1675.0,0
S192,NF-1097,26.0,2.0,8468.0,red,Reality,2,2,2,1.0,1.0,974.0,-3
S192,NF-1063,27.0,2.0,6474.0,green,Fiction,4,4,4,1.0,1.0,3908.0,-1
S192,NF-1060,28.0,2.0,9065.0,green,Fiction,3,1,4,1.0,1.0,2865.0,1
S192,NF-1053,29.0,2.0,6941.0,red,Reality,2,1,3,1.0,1.0,1351.0,2
S192,NF-1106,30.0,2.0,11095.0,red,Reality,4,3,4,1.0,1.0,3733.0,1
S192,NF-1057,31.0,2.0,7385.0,green,Fiction,2,1,1,1.0,1.0,1125.0,2
S192,NF-1098,32.0,2.0,4996.0,red,Reality,3,2,1,1.0,1.0,1701.0,-1
S192,NF-1022,33.0,2.0,6331.0,red,Reality,2,1,3,1.0,1.0,1522.0,-2
S192,NF-1016,34.0,2.0,9449.0,green,Fiction,2,1,4,1.0,1.0,1323.0,-1
S192,NF-1065,35.0,2.0,4772.0,red,Reality,3,2,3,1.0,1.0,3422.0,-2
S192,NF-1032,36.0,2.0,4233.0,red,Reality,3,3,3,1.0,1.0,874.0,-3
S192,NF-1031,37.0,2.0,7479.0,red,Reality,1,1,3,1.0,1.0,1078.0,-2
S192,NM-1011,38.0,2.0,9745.0,red,Reality,2,1,5,1.0,1.0,5778.0,2
S192,NF-1012,39.0,2.0,11000.0,red,Reality,1,0,4,1.0,1.0,952.0,-3
S192,NF-1042,40.0,2.0,6369.0,red,Reality,1,1,2,1.0,1.0,1241.0,-1
S192,NM-1055,41.0,2.0,12029.0,green,Fiction,2,0,3,1.0,1.0,2700.0,-1
S192,NF-1066,42.0,2.0,9735.0,red,Reality,3,1,4,1.0,1.0,5196.0,1
S192,NM-1027,43.0,2.0,15131.0,red,Reality,2,1,2,1.0,1.0,1336.0,1
S192,NF-1061,44.0,2.0,11614.0,red,Reality,4,5,5,1.0,1.0,2243.0,3
S192,NM-1058,45.0,2.0,8957.0,red,Reality,4,3,4,1.0,1.0,2157.0,1
S192,NM-1090,46.0,2.0,9364.0,red,Reality,3,3,4,1.0,1.0,1404.0,2
S192,NF-1002,47.0,2.0,7974.0,red,Reality,1,0,3,1.0,1.0,1860.0,2
S192,NF-1094,48.0,2.0,10488.0,green,Fiction,3,2,3,1.0,1.0,1603.0,0
S192,NF-1095,49.0,2.0,7432.0,green,Fiction,2,1,3,1.0,1.0,1044.0,-2
S192,NF-1001,50.0,2.0,11546.0,red,Reality,1,0,2,1.0,1.0,2131.0,2
S192,NF-1048,51.0,2.0,13870.0,green,Fiction,2,2,4,1.0,1.0,2168.0,-2
S192,NF-1075,52.0,2.0,4734.0,green,Fiction,2,1,2,1.0,1.0,3819.0,0
S192,NM-1070,53.0,2.0,8357.0,red,Reality,2,2,2,1.0,1.0,1559.0,3
S192,NM-1092,54.0,2.0,15693.0,green,Fiction,2,1,4,1.0,1.0,1126.0,-1
S192,NF-1049,55.0,2.0,5330.0,red,Reality,3,2,3,1.0,1.0,1210.0,-2
S192,NF-1100,56.0,2.0,5190.0,red,Reality,2,1,3,1.0,1.0,1486.0,-2
S192,NF-1093,57.0,2.0,4822.0,red,Reality,1,0,2,1.0,1.0,1369.0,2
S192,NF-1037,58.0,2.0,4756.0,green,Fiction,3,3,4,1.0,1.0,1295.0,2
S192,NF-1026,59.0,2.0,3451.0,red,Reality,1,0,3,1.0,1.0,1242.0,-1
S192,NF-1089,60.0,2.0,8747.0,green,Fiction,1,1,3,1.0,1.0,729.0,-3
S192,NF-1067,61.0,2.0,6234.0,red,Reality,1,1,3,1.0,1.0,6428.0,2
S192,NF-1025,62.0,2.0,3613.0,red,Reality,1,0,2,1.0,1.0,1243.0,-3
S192,NF-1071,63.0,2.0,5705.0,green,Fiction,1,1,1,1.0,1.0,938.0,-3
S192,NF-1087,64.0,2.0,3297.0,red,Reality,1,0,1,1.0,1.0,1098.0,-2
S192,NF-1044,65.0,2.0,5594.0,green,Fiction,2,0,1,1.0,1.0,1226.0,-3
S192,NF-1018,66.0,2.0,5312.0,green,Fiction,3,3,4,1.0,1.0,1255.0,1
S192,NF-1068,67.0,2.0,9378.0,red,Reality,3,1,2,1.0,1.0,3125.0,-1
S192,NF-1069,68.0,2.0,8888.0,red,Reality,1,1,2,1.0,1.0,4363.0,1
S192,NF-1003,69.0,2.0,8616.0,green,Fiction,2,1,2,1.0,1.0,3577.0,-3
S192,NF-1105,70.0,2.0,6231.0,green,Fiction,2,1,2,1.0,1.0,1806.0,-1
S192,NF-1109,71.0,2.0,5229.0,green,Fiction,1,1,2,1.0,1.0,1456.0,-1
S192,NF-1062,72.0,2.0,5658.0,red,Reality,2,1,4,1.0,1.0,1700.0,1
S192,NM-1007,73.0,2.0,6114.0,green,Fiction,1,0,3,1.0,1.0,2850.0,2
S192,NF-1028,74.0,2.0,6946.0,green,Fiction,2,2,3,1.0,1.0,4685.0,1
S192,NF-1085,75.0,2.0,5354.0,red,Reality,1,1,2,1.0,1.0,2356.0,1
S192,NF-1034,76.0,2.0,10259.0,red,Reality,1,1,2,1.0,1.0,1748.0,2
S192,NF-1005,77.0,2.0,12953.0,green,Fiction,2,1,3,1.0,1.0,1886.0,0
S192,NF-1059,78.0,2.0,4115.0,green,Fiction,1,0,3,1.0,1.0,1806.0,-1
S192,NF-1036,79.0,2.0,10610.0,red,Reality,2,2,1,1.0,1.0,1706.0,1
S192,NF-1086,80.0,2.0,6968.0,red,Reality,2,1,4,1.0,1.0,2062.0,-1
S192,NF-1079,81.0,2.0,13029.0,green,Fiction,3,1,0,1.0,1.0,1778.0,-3
S192,NM-1033,82.0,2.0,12915.0,red,Reality,2,1,4,1.0,1.0,1310.0,2
S192,NF-1088,83.0,2.0,7247.0,green,Fiction,2,2,4,1.0,1.0,1952.0,1
S192,NF-1023,84.0,2.0,9132.0,green,Fiction,4,4,4,1.0,1.0,1765.0,2
S192,NF-1041,85.0,2.0,4634.0,red,Reality,2,1,3,1.0,1.0,940.0,-2
S192,NM-1038,86.0,2.0,10793.0,red,Reality,3,1,4,1.0,1.0,1090.0,2
S192,NF-1110,87.0,2.0,11710.0,green,Fiction,2,1,4,1.0,1.0,1772.0,-1
S192,NF-1043,88.0,2.0,14098.0,green,Fiction,2,1,2,1.0,1.0,1197.0,0
S192,NF-1020,89.0,2.0,4708.0,red,Reality,1,1,2,1.0,1.0,1090.0,-3
S192,NM-1074,90.0,2.0,12272.0,green,Fiction,2,0,5,1.0,1.0,1106.0,2
S192,NF-1017,91.0,2.0,2771.0,green,Fiction,2,2,2,1.0,1.0,2406.0,-2
S192,NF-1024,92.0,2.0,8806.0,red,Reality,1,0,0,1.0,1.0,1485.0,-1
S192,NF-1040,93.0,2.0,8072.0,green,Fiction,1,1,4,1.0,1.0,2258.0,1
S192,NM-1091,94.0,2.0,47854.0,green,Fiction,3,2,3,1.0,1.0,2601.0,2
S192,NF-1081,95.0,2.0,5202.0,green,Fiction,3,2,4,1.0,1.0,1461.0,-1
S192,NF-1039,96.0,2.0,11519.0,red,Reality,1,0,4,1.0,1.0,3051.0,-2
S192,NF-1045,97.0,2.0,9801.0,red,Reality,3,1,2,1.0,1.0,1027.0,-1
S192,NF-1076,98.0,2.0,8503.0,green,Fiction,3,3,3,1.0,1.0,818.0,-3
S192,NF-1072,99.0,2.0,5628.0,red,Reality,3,3,3,1.0,1.0,2747.0,-2
S192,NM-1052,100.0,2.0,5216.0,red,Reality,1,1,2,1.0,1.0,2966.0,-1
S192,NM-1029,101.0,2.0,4756.0,green,Fiction,1,1,0,1.0,1.0,1035.0,2
S192,NF-1096,102.0,2.0,4809.0,green,Fiction,1,1,1,1.0,1.0,1601.0,-2
S192,NF-1083,103.0,2.0,8358.0,green,Fiction,2,1,1,1.0,1.0,2503.0,-1
S192,NM-1064,104.0,2.0,13104.0,red,Reality,4,3,3,1.0,1.0,1535.0,3
S192,NF-1054,105.0,2.0,7866.0,green,Fiction,2,1,3,1.0,1.0,1705.0,1
S192,NF-1080,106.0,2.0,6676.0,red,Reality,3,3,3,1.0,1.0,1270.0,-2
S192,NF-1030,107.0,2.0,11321.0,green,Fiction,2,1,4,1.0,1.0,1328.0,-3
S192,NM-1102,108.0,2.0,4668.0,green,Fiction,1,1,4,1.0,1.0,2132.0,2
S192,NF-1073,109.0,2.0,10589.0,green,Fiction,2,0,3,1.0,1.0,1528.0,0
S065,NM-1090,1.0,2.0,7090.0,red,Fiction,1,1,2,1.0,1.0,1152.0,1
S065,NF-1005,2.0,2.0,3763.0,red,Fiction,2,2,2,1.0,1.0,2086.0,0
S065,NF-1056,3.0,2.0,3403.0,green,Reality,2,2,2,1.0,1.0,833.0,2
S065,NF-1082,4.0,2.0,2642.0,green,Reality,3,3,2,1.0,1.0,1436.0,0
S065,NF-1059,5.0,2.0,4002.0,red,Fiction,2,2,2,1.0,1.0,1168.0,0
S065,NF-1012,6.0,2.0,2118.0,red,Fiction,2,2,2,1.0,1.0,1232.0,-2
S065,NF-1042,7.0,2.0,3060.0,red,Fiction,2,2,2,1.0,1.0,1359.0,1
S065,NF-1066,8.0,2.0,2978.0,green,Reality,2,2,2,1.0,1.0,1079.0,-2
S065,NM-1104,9.0,2.0,2682.0,green,Reality,1,1,1,1.0,1.0,1343.0,-3
S065,NM-1092,10.0,2.0,4087.0,green,Reality,0,0,1,1.0,1.0,922.0,-2
S065,NF-1068,11.0,2.0,2868.0,green,Reality,1,1,2,1.0,1.0,1153.0,-3
S065,NF-1093,12.0,2.0,2322.0,green,Reality,1,1,1,1.0,1.0,1086.0,-1
S065,NF-1075,13.0,2.0,3343.0,green,Reality,2,1,2,1.0,1.0,1331.0,1
S065,NF-1057,14.0,2.0,3610.0,green,Reality,1,1,0,1.0,1.0,1672.0,-3
S065,NF-1021,15.0,2.0,2443.0,red,Fiction,1,1,1,1.0,1.0,1230.0,-1
S065,NF-1099,16.0,2.0,2793.0,green,Reality,1,1,1,1.0,1.0,2179.0,-1
S065,NF-1060,17.0,2.0,4555.0,green,Reality,1,1,1,1.0,1.0,2112.0,-1
S065,NM-1033,18.0,2.0,4250.0,green,Reality,0,0,1,1.0,1.0,2052.0,1
S065,NF-1022,19.0,2.0,2903.0,red,Fiction,1,1,2,1.0,1.0,1721.0,-1
S065,NF-1004,20.0,2.0,2709.0,green,Reality,1,1,1,1.0,1.0,1723.0,1
S065,NF-1072,21.0,2.0,2202.0,red,Fiction,2,2,2,1.0,1.0,1232.0,3
S065,NM-1027,22.0,2.0,4484.0,red,Fiction,0,0,1,1.0,1.0,1551.0,0
S065,NF-1024,23.0,2.0,2973.0,red,Fiction,1,1,1,1.0,1.0,1162.0,1
S065,NM-1064,24.0,2.0,2935.0,green,Reality,0,0,0,1.0,1.0,1130.0,-1
S065,NM-1029,25.0,2.0,3295.0,red,Fiction,0,0,2,1.0,1.0,1751.0,3
S065,NM-1019,26.0,2.0,2435.0,red,Fiction,0,0,1,1.0,1.0,1029.0,1
S065,NF-1065,27.0,2.0,2699.0,green,Reality,2,2,2,1.0,1.0,781.0,2
S065,NF-1096,28.0,2.0,4091.0,red,Fiction,3,3,2,1.0,1.0,1300.0,3
S065,NF-1067,29.0,2.0,2426.0,red,Fiction,2,2,2,1.0,1.0,873.0,0
S065,NF-1098,30.0,2.0,3258.0,green,Reality,1,1,2,1.0,1.0,1851.0,1
S065,NF-1001,31.0,2.0,2267.0,red,Fiction,1,1,1,1.0,1.0,1463.0,1
S065,NF-1037,32.0,2.0,4289.0,green,Reality,1,1,2,1.0,1.0,1377.0,0
S065,NM-1055,33.0,2.0,2715.0,red,Fiction,0,0,1,1.0,1.0,1135.0,-1
S065,NM-1011,34.0,2.0,2904.0,green,Reality,0,0,1,1.0,1.0,940.0,1
S065,NF-1110,35.0,2.0,3275.0,green,Reality,1,1,1,1.0,1.0,814.0,3
S065,NF-1025,36.0,2.0,2608.0,green,Reality,1,1,1,1.0,1.0,1221.0,-2
S065,NF-1044,37.0,2.0,3238.0,red,Fiction,1,1,1,1.0,1.0,947.0,0
S065,NF-1028,38.0,2.0,2094.0,green,Reality,1,1,1,1.0,1.0,1777.0,-1
S065,NF-1031,39.0,2.0,2581.0,red,Fiction,1,1,0,1.0,1.0,1090.0,-1
S065,NF-1084,40.0,2.0,2459.0,red,Fiction,2,2,1,1.0,1.0,986.0,1
S065,NF-1101,41.0,2.0,3285.0,green,Reality,2,2,2,1.0,1.0,698.0,1
S065,NF-1048,42.0,2.0,2558.0,red,Fiction,2,2,2,1.0,1.0,1163.0,-1
S065,NF-1020,43.0,2.0,2145.0,green,Reality,2,2,2,1.0,1.0,1040.0,1
S065,NM-1091,44.0,2.0,3521.0,red,Fiction,0,0,1,1.0,1.0,1199.0,2
S065,NF-1043,45.0,2.0,2537.0,red,Fiction,1,1,1,1.0,1.0,1079.0,-2
S065,NF-1095,46.0,2.0,1950.0,green,Reality,1,1,1,1.0,1.0,1206.0,1
S065,NF-1053,47.0,2.0,2219.0,green,Reality,1,1,0,1.0,1.0,1487.0,1
S065,NF-1026,48.0,2.0,2697.0,red,Fiction,1,1,1,1.0,1.0,1310.0,0
S065,NF-1015,49.0,2.0,2699.0,red,Fiction,1,1,2,1.0,1.0,2844.0,2
S065,NF-1071,50.0,2.0,2037.0,red,Fiction,1,1,1,1.0,1.0,1529.0,-2
S065,NF-1069,51.0,2.0,2551.0,green,Reality,1,1,1,1.0,1.0,1273.0,1
S065,NF-1046,52.0,2.0,2484.0,red,Fiction,1,1,0,1.0,1.0,1131.0,3
S065,NF-1006,53.0,2.0,2501.0,green,Reality,1,1,1,1.0,1.0,1270.0,2
S065,NM-1074,54.0,2.0,10966.0,red,Fiction,1,1,1,1.0,1.0,1070.0,1
S065,NF-1008,55.0,2.0,3475.0,green,Reality,1,1,1,1.0,1.0,975.0,2
S065,NF-1032,56.0,2.0,2982.0,green,Reality,2,2,2,1.0,1.0,1006.0,-2
S065,NF-1100,57.0,2.0,2217.0,red,Fiction,2,2,2,1.0,1.0,1496.0,1
S065,NM-1052,58.0,2.0,2466.0,green,Reality,0,0,1,1.0,1.0,1264.0,0
S065,NF-1105,59.0,2.0,2880.0,red,Fiction,1,1,1,1.0,1.0,995.0,1
S065,NF-1108,60.0,2.0,3182.0,green,Reality,1,2,2,1.0,1.0,1395.0,-2
S065,NF-1016,61.0,2.0,2350.0,green,Reality,2,2,2,1.0,1.0,1350.0,2
S065,NF-1017,62.0,2.0,3515.0,green,Reality,2,2,2,1.0,1.0,1142.0,0
S065,NF-1009,63.0,2.0,3336.0,red,Fiction,3,3,2,1.0,1.0,1354.0,3
S065,NF-1045,64.0,2.0,3453.0,red,Fiction,2,2,1,1.0,1.0,1163.0,2
S065,NF-1083,65.0,2.0,2605.0,green,Reality,3,3,2,1.0,1.0,959.0,-1
S065,NF-1081,66.0,2.0,2595.0,green,Reality,2,2,1,1.0,1.0,1154.0,-2
S065,NF-1085,67.0,2.0,2300.0,red,Fiction,2,2,2,1.0,1.0,1896.0,1
S065,NF-1040,68.0,2.0,2306.0,green,Reality,2,3,2,1.0,1.0,1340.0,1
S065,NF-1014,69.0,2.0,3070.0,red,Fiction,1,1,1,1.0,1.0,1256.0,1
S065,NF-1103,70.0,2.0,2302.0,green,Reality,1,1,0,1.0,1.0,1157.0,1
S065,NF-1087,71.0,2.0,2674.0,green,Reality,1,1,1,1.0,1.0,1197.0,-2
S065,NM-1035,72.0,2.0,2395.0,red,Fiction,0,0,1,1.0,1.0,757.0,-1
S065,NF-1018,73.0,2.0,2190.0,red,Fiction,3,3,2,1.0,1.0,1651.0,2
S065,NF-1023,74.0,2.0,2285.0,red,Fiction,1,1,1,1.0,1.0,1111.0,1
S065,NF-1086,75.0,2.0,2987.0,red,Fiction,3,3,1,1.0,1.0,773.0,3
S065,NM-1058,76.0,2.0,3361.0,red,Fiction,0,0,0,1.0,1.0,7191.0,-1
S065,NF-1013,77.0,2.0,2053.0,green,Reality,1,1,1,1.0,1.0,956.0,0
S065,NF-1034,78.0,2.0,3365.0,green,Reality,1,1,1,1.0,1.0,1147.0,1
S065,NF-1063,79.0,2.0,2359.0,red,Fiction,3,3,3,1.0,1.0,1420.0,3
S065,NF-1079,80.0,2.0,2349.0,green,Reality,3,3,3,1.0,1.0,1735.0,2
S065,NF-1077,81.0,2.0,2339.0,red,Fiction,1,1,1,1.0,1.0,1380.0,1
S065,NM-1007,82.0,2.0,3124.0,red,Fiction,0,0,0,1.0,1.0,858.0,-1
S065,NF-1107,83.0,2.0,2164.0,red,Fiction,0,0,0,1.0,1.0,1516.0,1
S065,NM-1038,84.0,2.0,2632.0,green,Reality,0,0,0,1.0,1.0,2210.0,-1
S065,NF-1049,85.0,2.0,5211.0,red,Fiction,0,0,0,1.0,1.0,1455.0,2
S065,NF-1054,86.0,2.0,3684.0,green,Reality,1,1,1,1.0,1.0,1282.0,1
S065,NF-1076,87.0,2.0,2243.0,green,Reality,3,3,3,1.0,1.0,1253.0,3
S065,NF-1051,88.0,2.0,3968.0,red,Fiction,1,1,1,1.0,1.0,1073.0,-2
S065,NF-1089,89.0,2.0,2782.0,red,Fiction,3,3,3,1.0,1.0,1697.0,1
S065,NF-1061,90.0,2.0,2390.0,red,Fiction,1,1,1,1.0,1.0,1529.0,-2
S065,NF-1030,91.0,2.0,3849.0,red,Fiction,1,1,1,1.0,1.0,1196.0,1
S065,NF-1106,92.0,2.0,2029.0,green,Reality,2,2,2,1.0,1.0,1274.0,-1
S065,NF-1073,93.0,2.0,2008.0,red,Fiction,2,2,2,1.0,1.0,1070.0,3
S065,NF-1036,94.0,2.0,2744.0,green,Reality,2,2,2,1.0,1.0,1496.0,3
S065,NF-1003,95.0,2.0,2936.0,green,Reality,2,2,2,1.0,1.0,1314.0,1
S065,NF-1109,96.0,2.0,2265.0,red,Fiction,2,2,2,1.0,1.0,1257.0,0
S065,NM-1102,97.0,2.0,4567.0,green,Reality,0,0,1,1.0,1.0,1055.0,2
S065,NF-1002,98.0,2.0,3412.0,red,Fiction,1,1,1,1.0,1.0,1409.0,-1
S065,NF-1080,99.0,2.0,3623.0,red,Fiction,2,2,2,1.0,1.0,1345.0,-2
S065,NF-1039,100.0,2.0,2327.0,green,Reality,2,2,2,1.0,1.0,1253.0,2
S065,NF-1088,101.0,2.0,2291.0,red,Fiction,2,2,2,1.0,1.0,1352.0,-1
S065,NF-1062,102.0,2.0,2249.0,green,Reality,2,2,2,1.0,1.0,859.0,0
S065,NF-1050,103.0,2.0,3504.0,green,Reality,2,2,2,1.0,1.0,1002.0,2
S065,NF-1094,104.0,2.0,3307.0,green,Reality,3,3,3,1.0,1.0,914.0,3
S065,NM-1070,105.0,2.0,2022.0,green,Reality,0,0,1,1.0,1.0,1305.0,1
S065,NF-1047,106.0,2.0,3913.0,red,Fiction,1,1,1,1.0,1.0,1126.0,-1
S065,NF-1097,107.0,2.0,2158.0,red,Fiction,3,3,3,1.0,1.0,1238.0,-1
S065,NM-1010,108.0,2.0,2996.0,green,Reality,0,0,0,1.0,1.0,1092.0,-1
S065,NF-1041,109.0,2.0,2485.0,green,Reality,2,2,2,1.0,1.0,1263.0,-1
S119,NF-1044,1.0,2.0,6762.0,red,Reality,0,2,4,1.0,1.0,3319.0,3
S119,NF-1082,2.0,2.0,5813.0,red,Reality,3,2,5,1.0,1.0,1853.0,3
S119,NF-1103,3.0,2.0,5601.0,red,Reality,1,1,3,1.0,1.0,895.0,-1
S119,NF-1083,4.0,2.0,5775.0,red,Reality,3,4,4,1.0,1.0,1231.0,-1
S119,NF-1076,5.0,2.0,3955.0,red,Reality,4,4,4,1.0,1.0,1775.0,3
S119,NF-1079,6.0,2.0,6733.0,green,Fiction,2,2,4,1.0,1.0,1610.0,-2
S119,NF-1089,7.0,2.0,4586.0,red,Reality,3,2,5,1.0,1.0,1191.0,3
S119,NF-1101,8.0,2.0,4568.0,red,Reality,4,4,5,1.0,1.0,1205.0,3
S119,NF-1014,9.0,2.0,5840.0,green,Fiction,1,1,4,1.0,1.0,1618.0,-2
S119,NF-1108,10.0,2.0,11346.0,green,Fiction,1,2,4,1.0,1.0,1369.0,0
S119,NF-1107,11.0,2.0,4395.0,red,Reality,0,0,4,1.0,1.0,1063.0,3
S119,NM-1102,12.0,2.0,8198.0,green,Fiction,1,1,3,1.0,1.0,1596.0,3
S119,NF-1067,13.0,2.0,4052.0,green,Fiction,1,1,3,1.0,1.0,1494.0,3
S119,NM-1104,14.0,2.0,4115.0,green,Fiction,1,1,4,1.0,1.0,1501.0,3
S119,NF-1017,15.0,2.0,3537.0,green,Fiction,3,2,5,1.0,1.0,1300.0,2
S119,NF-1021,16.0,2.0,3007.0,red,Reality,1,1,5,1.0,1.0,1217.0,3
S119,NF-1060,17.0,2.0,2896.0,green,Fiction,2,1,4,1.0,1.0,1189.0,3
S119,NF-1018,18.0,2.0,3937.0,green,Fiction,1,1,5,1.0,1.0,1470.0,3
S119,NF-1045,19.0,2.0,4492.0,green,Fiction,1,1,5,1.0,1.0,992.0,3
S119,NF-1016,20.0,2.0,3435.0,green,Fiction,1,1,4,1.0,1.0,1580.0,3
S119,NF-1057,21.0,2.0,3301.0,red,Reality,1,1,5,1.0,1.0,995.0,3
S119,NF-1069,22.0,2.0,4325.0,green,Fiction,0,2,2,1.0,1.0,1162.0,3
S119,NF-1063,23.0,2.0,4783.0,green,Fiction,5,5,5,1.0,1.0,1411.0,3
S119,NF-1093,24.0,2.0,2876.0,red,Reality,2,4,5,1.0,1.0,1700.0,3
S119,NF-1059,25.0,2.0,4005.0,green,Fiction,5,5,5,1.0,1.0,1701.0,3
S119,NF-1004,26.0,2.0,2908.0,red,Reality,1,3,4,1.0,1.0,1082.0,3
S119,NF-1085,27.0,2.0,3184.0,green,Fiction,1,4,5,1.0,1.0,884.0,3
S119,NF-1028,28.0,2.0,3576.0,red,Reality,4,3,5,1.0,1.0,1181.0,3
S119,NF-1099,29.0,2.0,4365.0,red,Reality,1,5,5,1.0,1.0,4592.0,2
S119,NF-1071,30.0,2.0,4322.0,green,Fiction,0,1,4,1.0,1.0,1219.0,3
S119,NF-1097,31.0,2.0,3752.0,green,Fiction,4,3,5,1.0,1.0,1131.0,3
S119,NF-1086,32.0,2.0,3468.0,green,Fiction,3,4,5,1.0,1.0,3435.0,3
S119,NF-1039,33.0,2.0,2583.0,green,Fiction,0,4,4,1.0,1.0,987.0,3
S119,NF-1051,34.0,2.0,2991.0,green,Fiction,0,4,4,1.0,1.0,1598.0,3
S119,NF-1056,35.0,2.0,3018.0,green,Fiction,0,3,4,1.0,1.0,1425.0,3
S119,NF-1094,36.0,2.0,6374.0,red,Reality,3,4,5,1.0,1.0,864.0,3
S119,NF-1047,37.0,2.0,4810.0,green,Fiction,0,3,4,1.0,1.0,1154.0,3
S119,NM-1011,38.0,2.0,6211.0,red,Reality,1,1,5,1.0,1.0,929.0,3
S119,NM-1074,39.0,2.0,3614.0,green,Fiction,0,0,4,1.0,1.0,8294.0,2
S119,NF-1080,40.0,2.0,16679.0,red,Reality,1,4,5,1.0,1.0,5711.0,2
S119,NF-1040,41.0,2.0,10583.0,green,Fiction,1,2,5,1.0,1.0,10099.0,3
S119,NF-1073,42.0,2.0,10031.0,green,Fiction,1,2,5,1.0,1.0,1509.0,3
S119,NF-1054,43.0,2.0,3243.0,red,Reality,1,4,4,1.0,1.0,875.0,3
S119,NF-1098,44.0,2.0,3614.0,red,Reality,1,4,4,1.0,1.0,1154.0,3
S119,NM-1092,45.0,2.0,2659.0,green,Fiction,0,0,5,1.0,1.0,980.0,3
S119,NF-1043,46.0,2.0,2608.0,red,Reality,0,0,5,1.0,1.0,1079.0,3
S119,NF-1084,47.0,2.0,3370.0,green,Fiction,3,1,5,1.0,1.0,1003.0,3
S119,NF-1031,48.0,2.0,8113.0,green,Fiction,1,4,2,1.0,1.0,973.0,3
S119,NM-1033,49.0,2.0,8387.0,red,Reality,1,2,5,1.0,1.0,1360.0,3
S119,NF-1066,50.0,2.0,3313.0,red,Reality,1,5,4,1.0,1.0,2841.0,3
S119,NF-1002,51.0,2.0,13684.0,green,Fiction,1,1,5,1.0,1.0,1878.0,3
S119,NF-1061,52.0,2.0,9185.0,red,Reality,3,3,5,1.0,1.0,1627.0,3
S119,NF-1006,53.0,2.0,8590.0,red,Reality,1,1,3,1.0,1.0,1055.0,0
S119,NF-1022,54.0,2.0,2833.0,red,Reality,0,0,3,1.0,1.0,1590.0,3
S119,NF-1081,55.0,2.0,2854.0,red,Reality,0,0,4,1.0,1.0,1350.0,3
S119,NF-1072,56.0,2.0,3603.0,green,Fiction,5,5,6,1.0,1.0,1189.0,3
S119,NF-1012,57.0,2.0,2937.0,red,Reality,0,0,3,1.0,1.0,1462.0,2
S119,NF-1037,58.0,2.0,2683.0,red,Reality,2,3,5,1.0,1.0,1599.0,3
S119,NF-1049,59.0,2.0,3323.0,red,Reality,0,4,4,1.0,1.0,1008.0,3
S119,NF-1068,60.0,2.0,4781.0,red,Reality,0,4,4,1.0,1.0,941.0,-1
S119,NF-1110,61.0,2.0,5279.0,red,Reality,0,2,4,1.0,1.0,1587.0,3
S119,NF-1041,62.0,2.0,4072.0,green,Fiction,0,4,5,1.0,1.0,961.0,3
S119,NF-1023,63.0,2.0,3815.0,green,Fiction,0,4,5,1.0,1.0,1327.0,3
S119,NF-1095,64.0,2.0,5477.0,red,Reality,0,4,5,1.0,1.0,1221.0,3
S119,NF-1062,65.0,2.0,9795.0,red,Reality,0,4,4,1.0,1.0,1585.0,2
S119,NF-1050,66.0,2.0,3661.0,green,Fiction,0,0,4,1.0,1.0,1260.0,3
S119,NF-1048,67.0,2.0,6789.0,red,Reality,0,4,5,1.0,1.0,1045.0,3
S119,NF-1026,68.0,2.0,5512.0,green,Fiction,0,4,5,1.0,1.0,1292.0,3
S119,NF-1030,69.0,2.0,2413.0,red,Reality,0,1,4,1.0,1.0,2232.0,3
S119,NF-1003,70.0,2.0,2856.0,green,Fiction,0,2,5,1.0,1.0,1144.0,3
S119,NF-1013,71.0,2.0,3505.0,red,Reality,1,4,5,1.0,1.0,1434.0,3
S119,NF-1005,72.0,2.0,6739.0,red,Reality,1,4,5,1.0,1.0,1135.0,3
S119,NF-1015,73.0,2.0,2471.0,red,Reality,1,2,4,1.0,1.0,1050.0,3
S119,NF-1088,74.0,2.0,3892.0,red,Reality,2,4,4,1.0,1.0,917.0,3
S119,NF-1096,75.0,2.0,15792.0,green,Fiction,3,2,5,1.0,1.0,7078.0,-1
S119,NF-1106,76.0,2.0,2831.0,green,Fiction,1,1,4,1.0,1.0,1515.0,3
S119,NF-1075,77.0,2.0,2383.0,green,Fiction,0,0,4,1.0,1.0,6739.0,2
S119,NF-1042,78.0,2.0,2753.0,green,Fiction,0,3,4,1.0,1.0,6517.0,0
S119,NF-1109,79.0,2.0,5208.0,green,Fiction,0,3,4,1.0,1.0,6181.0,3
S119,NF-1001,80.0,2.0,7816.0,green,Fiction,0,2,4,1.0,1.0,1410.0,3
S119,NM-1019,81.0,2.0,9712.0,red,Reality,1,4,4,1.0,1.0,1803.0,2
S119,NF-1046,82.0,2.0,14626.0,green,Fiction,1,2,3,1.0,1.0,2279.0,3
S119,NF-1105,83.0,2.0,3134.0,green,Fiction,1,1,4,1.0,1.0,958.0,3
S119,NF-1087,84.0,2.0,2500.0,green,Fiction,0,0,4,1.0,1.0,5540.0,3
S119,NM-1052,85.0,2.0,2162.0,red,Reality,0,0,4,1.0,1.0,1123.0,3
S119,NF-1034,86.0,2.0,2813.0,red,Reality,0,0,4,1.0,1.0,1100.0,3
S119,NF-1065,87.0,2.0,2246.0,red,Reality,0,0,4,1.0,1.0,1179.0,3
S119,NF-1009,88.0,2.0,3652.0,red,Reality,0,0,4,1.0,1.0,1215.0,3
S119,NM-1010,89.0,2.0,8454.0,green,Fiction,0,2,3,1.0,1.0,1002.0,3
S119,NM-1007,90.0,2.0,5157.0,red,Reality,0,2,3,1.0,1.0,1020.0,3
S119,NF-1077,91.0,2.0,7741.0,red,Reality,1,4,2,1.0,1.0,1554.0,3
S119,NM-1091,92.0,2.0,2696.0,green,Fiction,2,3,4,1.0,1.0,1038.0,3
S119,NM-1038,93.0,2.0,2970.0,red,Reality,0,0,4,1.0,1.0,1118.0,3
S119,NF-1020,94.0,2.0,3952.0,green,Fiction,0,0,3,1.0,1.0,1350.0,3
S119,NM-1035,95.0,2.0,12162.0,green,Fiction,0,2,4,1.0,1.0,1339.0,3
S119,NF-1032,96.0,2.0,7174.0,red,Reality,2,4,4,1.0,1.0,1182.0,3
S119,NF-1100,97.0,2.0,3544.0,red,Reality,1,2,4,1.0,1.0,1841.0,3
S119,NM-1029,98.0,2.0,4259.0,red,Reality,0,3,4,1.0,1.0,1128.0,3
S119,NF-1036,99.0,2.0,4672.0,green,Fiction,0,1,3,1.0,1.0,942.0,3
S119,NF-1053,100.0,2.0,3517.0,green,Fiction,0,1,3,1.0,1.0,1231.0,3
S119,NF-1008,101.0,2.0,3186.0,green,Fiction,1,3,3,1.0,1.0,1841.0,3
S119,NM-1090,102.0,2.0,3263.0,red,Reality,1,3,4,1.0,1.0,1237.0,3
S119,NF-1024,103.0,2.0,4407.0,red,Reality,1,3,4,1.0,1.0,1106.0,3
S119,NM-1058,104.0,2.0,7375.0,red,Reality,1,3,4,1.0,1.0,838.0,3
S119,NM-1027,105.0,2.0,5167.0,green,Fiction,1,4,4,1.0,1.0,987.0,3
S119,NF-1025,106.0,2.0,4253.0,red,Reality,1,1,4,1.0,1.0,1100.0,3
S119,NM-1070,107.0,2.0,6386.0,red,Reality,1,4,4,1.0,1.0,867.0,3
S119,NM-1064,108.0,2.0,4063.0,green,Fiction,1,4,4,1.0,1.0,5082.0,3
S119,NM-1055,109.0,2.0,2161.0,green,Fiction,0,0,3,1.0,1.0,2804.0,3
S125,NF-1093,1.0,2.0,11486.0,blue,Fiction,1,1,2,1.0,1.0,1042.0,3
S125,NF-1037,2.0,2.0,6386.0,green,Reality,1,1,1,1.0,1.0,1182.0,3
S125,NF-1079,3.0,2.0,5689.0,blue,Fiction,2,1,1,1.0,1.0,1454.0,-3
S125,NM-1058,4.0,2.0,7275.0,green,Reality,2,2,1,1.0,1.0,1096.0,3
S125,NF-1032,5.0,2.0,4993.0,blue,Fiction,1,0,0,1.0,1.0,1010.0,-3
S125,NF-1025,6.0,2.0,2997.0,green,Reality,0,0,0,1.0,1.0,1138.0,-3
S125,NF-1096,7.0,2.0,21132.0,green,Reality,3,1,1,1.0,1.0,3719.0,3
S125,NF-1069,8.0,2.0,2797.0,green,Reality,0,0,1,1.0,1.0,1225.0,1
S125,NF-1023,9.0,2.0,5825.0,blue,Fiction,2,0,1,1.0,1.0,1078.0,-3
S125,NF-1020,10.0,2.0,4420.0,blue,Fiction,2,0,0,1.0,1.0,1581.0,-3
S125,NF-1050,11.0,2.0,5051.0,blue,Fiction,0,0,0,1.0,1.0,2948.0,3
S125,NF-1062,12.0,2.0,4085.0,green,Reality,0,0,1,1.0,1.0,941.0,3
S125,NF-1081,13.0,2.0,4965.0,blue,Fiction,0,0,1,1.0,1.0,2049.0,-3
S125,NF-1061,14.0,2.0,9941.0,blue,Fiction,2,0,1,1.0,1.0,1334.0,-3
S125,NF-1028,15.0,2.0,4734.0,blue,Fiction,1,0,1,1.0,1.0,1153.0,-3
S125,NF-1084,16.0,2.0,6965.0,blue,Fiction,0,0,1,1.0,1.0,1207.0,3
S125,NF-1030,17.0,2.0,6622.0,blue,Fiction,2,0,1,1.0,1.0,1463.0,2
S125,NF-1099,18.0,2.0,4069.0,green,Reality,0,0,1,1.0,1.0,1379.0,-3
S125,NF-1048,19.0,2.0,5000.0,blue,Fiction,1,0,2,1.0,1.0,1076.0,3
S125,NF-1088,20.0,2.0,5075.0,blue,Fiction,1,0,1,1.0,1.0,1012.0,-2
S125,NF-1077,21.0,2.0,4855.0,green,Reality,2,0,0,1.0,1.0,1490.0,-3
S125,NF-1021,22.0,2.0,5043.0,green,Reality,2,0,1,1.0,1.0,989.0,-3
S125,NF-1042,23.0,2.0,4446.0,blue,Fiction,3,1,3,1.0,1.0,1272.0,3
S125,NF-1016,24.0,2.0,4034.0,blue,Fiction,0,0,2,1.0,1.0,1358.0,-3
S125,NF-1065,25.0,2.0,3074.0,green,Reality,1,0,1,1.0,1.0,869.0,3
S125,NF-1046,26.0,2.0,3478.0,green,Reality,2,0,2,1.0,1.0,2970.0,0
S125,NM-1090,27.0,2.0,3668.0,blue,Fiction,0,0,0,1.0,1.0,1343.0,-3
S125,NF-1083,28.0,2.0,2734.0,blue,Fiction,0,0,0,1.0,1.0,1668.0,3
S125,NM-1052,29.0,2.0,6617.0,green,Reality,0,0,2,1.0,1.0,1703.0,-2
S125,NF-1047,30.0,2.0,7541.0,green,Reality,0,0,1,1.0,1.0,860.0,-3
S125,NF-1040,31.0,2.0,3875.0,green,Reality,0,0,2,1.0,1.0,1264.0,3
S125,NM-1029,32.0,2.0,3444.0,green,Reality,0,0,0,1.0,1.0,937.0,-3
S125,NF-1089,33.0,2.0,4041.0,blue,Fiction,0,0,0,1.0,1.0,1045.0,2
S125,NM-1010,34.0,2.0,4047.0,blue,Fiction,0,0,1,1.0,1.0,4558.0,2
S125,NF-1103,35.0,2.0,6374.0,green,Reality,0,0,0,1.0,1.0,1138.0,-3
S125,NF-1097,36.0,2.0,5747.0,green,Reality,1,0,1,1.0,1.0,1787.0,1
S125,NM-1092,37.0,2.0,3189.0,green,Reality,0,0,0,1.0,1.0,902.0,-3
S125,NF-1087,38.0,2.0,2345.0,blue,Fiction,0,0,0,1.0,1.0,1102.0,-3
S125,NF-1009,39.0,2.0,3038.0,green,Reality,0,0,0,1.0,1.0,2299.0,-3
S125,NF-1041,40.0,2.0,3276.0,blue,Fiction,1,0,2,1.0,1.0,983.0,3
S125,NF-1004,41.0,2.0,5513.0,green,Reality,0,0,2,1.0,1.0,1575.0,3
S125,NF-1015,42.0,2.0,3016.0,green,Reality,0,0,1,1.0,1.0,1477.0,-3
S125,NF-1095,43.0,2.0,5398.0,green,Reality,1,0,1,1.0,1.0,2603.0,0
S125,NF-1075,44.0,2.0,3368.0,green,Reality,0,0,2,1.0,1.0,1485.0,2
S125,NM-1104,45.0,2.0,3834.0,green,Reality,0,0,2,1.0,1.0,841.0,-3
S125,NM-1011,46.0,2.0,4502.0,green,Reality,1,0,1,1.0,1.0,1695.0,3
S125,NF-1043,47.0,2.0,7993.0,green,Reality,1,0,1,1.0,1.0,680.0,1
S125,NF-1039,48.0,2.0,3775.0,green,Reality,0,0,3,1.0,1.0,2177.0,3
S125,NF-1082,49.0,2.0,4220.0,blue,Fiction,1,0,2,1.0,1.0,2327.0,2
S125,NF-1094,50.0,2.0,3035.0,green,Reality,0,0,0,1.0,1.0,1149.0,3
S125,NF-1031,51.0,2.0,3413.0,green,Reality,0,0,1,1.0,1.0,1877.0,3
S125,NM-1091,52.0,2.0,3679.0,blue,Fiction,0,0,0,1.0,1.0,924.0,-3
S125,NF-1067,53.0,2.0,7737.0,blue,Fiction,2,0,1,1.0,1.0,1073.0,-3
S125,NF-1073,54.0,2.0,3675.0,blue,Fiction,0,0,0,1.0,1.0,1925.0,2
S125,NF-1109,55.0,2.0,3202.0,blue,Fiction,0,0,0,1.0,1.0,1807.0,1
S125,NF-1049,56.0,2.0,5375.0,green,Reality,2,0,2,1.0,1.0,1456.0,3
S125,NF-1045,57.0,2.0,3880.0,blue,Fiction,3,0,3,1.0,1.0,1126.0,-3
S125,NF-1108,58.0,2.0,3997.0,green,Reality,3,0,0,1.0,1.0,1008.0,3
S125,NF-1005,59.0,2.0,3303.0,green,Reality,1,0,1,1.0,1.0,885.0,3
S125,NF-1072,60.0,2.0,3136.0,green,Reality,2,0,2,1.0,1.0,2645.0,-3
S125,NF-1006,61.0,2.0,5000.0,green,Reality,0,0,2,1.0,1.0,2588.0,2
S125,NF-1022,62.0,2.0,5548.0,blue,Fiction,0,0,2,1.0,1.0,1662.0,3
S125,NF-1036,63.0,2.0,4874.0,blue,Fiction,1,0,2,1.0,1.0,1471.0,3
S125,NM-1102,64.0,2.0,3374.0,blue,Fiction,1,0,2,1.0,1.0,3332.0,-3
S125,NM-1074,65.0,2.0,2442.0,green,Reality,0,0,0,1.0,1.0,1000.0,-3
S125,NF-1098,66.0,2.0,3110.0,green,Reality,0,0,0,1.0,1.0,1821.0,3
S125,NF-1085,67.0,2.0,2660.0,blue,Fiction,0,0,3,1.0,1.0,1250.0,3
S125,NM-1007,68.0,2.0,3439.0,blue,Fiction,2,0,2,1.0,1.0,1641.0,2
S125,NF-1080,69.0,2.0,3314.0,green,Reality,0,0,2,1.0,1.0,1247.0,3
S125,NF-1057,70.0,2.0,3443.0,green,Reality,0,0,0,1.0,1.0,1664.0,-3
S125,NM-1064,71.0,2.0,4488.0,blue,Fiction,0,0,1,1.0,1.0,2391.0,3
S125,NF-1101,72.0,2.0,2523.0,blue,Fiction,0,0,2,1.0,1.0,888.0,-3
S125,NF-1012,73.0,2.0,4277.0,green,Reality,0,0,2,1.0,1.0,1232.0,-3
S125,NF-1017,74.0,2.0,3335.0,blue,Fiction,0,0,1,1.0,1.0,3029.0,2
S125,NM-1019,75.0,2.0,4422.0,blue,Fiction,1,0,2,1.0,1.0,1182.0,3
S125,NF-1003,76.0,2.0,9671.0,blue,Fiction,5,2,2,1.0,1.0,1184.0,2
S125,NF-1044,77.0,2.0,3565.0,green,Reality,0,0,1,1.0,1.0,1614.0,-3
S125,NF-1068,78.0,2.0,6649.0,green,Reality,1,0,1,1.0,1.0,1267.0,-3
S125,NF-1008,79.0,2.0,4411.0,green,Reality,0,0,1,1.0,1.0,1195.0,3
S125,NF-1059,80.0,2.0,4066.0,green,Reality,1,0,2,1.0,1.0,1476.0,-3
S125,NF-1110,81.0,2.0,5865.0,green,Reality,0,0,1,1.0,1.0,1342.0,-3
S125,NM-1035,82.0,2.0,2206.0,green,Reality,0,0,1,1.0,1.0,1747.0,3
S125,NF-1086,83.0,2.0,4125.0,blue,Fiction,1,0,1,1.0,1.0,1000.0,-3
S125,NF-1002,84.0,2.0,3411.0,green,Reality,0,0,0,1.0,1.0,1710.0,-3
S125,NF-1013,85.0,2.0,3168.0,green,Reality,0,0,3,1.0,1.0,933.0,3
S125,NF-1105,86.0,2.0,2873.0,blue,Fiction,0,0,1,1.0,1.0,1090.0,-3
S125,NF-1014,87.0,2.0,3284.0,green,Reality,0,0,0,1.0,1.0,2213.0,3
S125,NF-1054,88.0,2.0,2671.0,blue,Fiction,0,0,1,1.0,1.0,1961.0,2
S125,NF-1001,89.0,2.0,4043.0,blue,Fiction,0,0,0,1.0,1.0,1956.0,1
S125,NF-1018,90.0,2.0,3559.0,blue,Fiction,3,0,2,1.0,1.0,1816.0,3
S125,NM-1027,91.0,2.0,3347.0,green,Reality,0,0,0,1.0,1.0,931.0,-3
S125,NF-1063,92.0,2.0,4216.0,green,Reality,3,0,1,1.0,1.0,1140.0,-3
S125,NF-1024,93.0,2.0,4064.0,blue,Fiction,1,0,1,1.0,1.0,1088.0,-3
S125,NM-1038,94.0,2.0,4227.0,blue,Fiction,2,0,2,1.0,1.0,1087.0,-3
S125,NF-1071,95.0,2.0,2844.0,blue,Fiction,0,0,0,1.0,1.0,1518.0,-3
S125,NM-1055,96.0,2.0,3244.0,blue,Fiction,0,0,0,1.0,1.0,2077.0,3
S125,NF-1051,97.0,2.0,2753.0,green,Reality,0,0,1,1.0,1.0,1253.0,2
S125,NF-1026,98.0,2.0,3670.0,blue,Fiction,0,0,0,1.0,1.0,1228.0,-3
S125,NF-1106,99.0,2.0,2963.0,green,Reality,2,0,1,1.0,1.0,1097.0,-3
S125,NF-1100,100.0,2.0,2394.0,blue,Fiction,1,0,1,1.0,1.0,1651.0,3
S125,NF-1053,101.0,2.0,2231.0,blue,Fiction,0,0,0,1.0,1.0,3668.0,3
S125,NM-1033,102.0,2.0,2889.0,green,Reality,0,0,1,1.0,1.0,3088.0,2
S125,NF-1034,103.0,2.0,2402.0,blue,Fiction,0,0,2,1.0,1.0,1630.0,3
S125,NF-1066,104.0,2.0,2787.0,blue,Fiction,2,0,1,1.0,1.0,1560.0,-3
S125,NM-1070,105.0,2.0,3538.0,blue,Fiction,1,0,1,1.0,1.0,1200.0,-3
S125,NF-1060,106.0,2.0,2954.0,green,Reality,3,0,2,1.0,1.0,1008.0,-3
S125,NF-1076,107.0,2.0,4510.0,green,Reality,3,0,2,1.0,1.0,1846.0,2
S125,NF-1107,108.0,2.0,3890.0,blue,Fiction,1,0,1,1.0,1.0,1154.0,-3
S125,NF-1056,109.0,2.0,4301.0,blue,Fiction,1,0,1,1.0,1.0,964.0,-3
S175,NF-1008,1.0,2.0,10606.0,green,Reality,3,0,2,1.0,1.0,1050.0,-2
S175,NF-1099,2.0,2.0,3825.0,red,Fiction,0,0,0,1.0,1.0,1034.0,3
S175,NF-1039,3.0,2.0,7507.0,green,Reality,2,0,3,1.0,1.0,1622.0,-3
S175,NF-1025,4.0,2.0,3133.0,red,Fiction,0,0,0,1.0,1.0,2351.0,-2
S175,NF-1032,5.0,2.0,6593.0,red,Fiction,2,2,1,1.0,1.0,903.0,-3
S175,NF-1051,6.0,2.0,5011.0,green,Reality,0,0,3,1.0,1.0,1051.0,0
S175,NM-1091,7.0,2.0,4387.0,green,Reality,1,1,1,1.0,1.0,1007.0,3
S175,NF-1063,8.0,2.0,6834.0,red,Fiction,4,2,3,1.0,1.0,1105.0,2
S175,NF-1006,9.0,2.0,4373.0,red,Fiction,2,0,3,1.0,1.0,1283.0,2
S175,NM-1090,10.0,2.0,3084.0,green,Reality,0,0,0,1.0,1.0,974.0,-3
S175,NF-1037,11.0,2.0,3485.0,green,Reality,2,0,2,1.0,1.0,750.0,3
S175,NM-1007,12.0,2.0,4252.0,green,Reality,0,0,2,1.0,1.0,1937.0,2
S175,NF-1062,13.0,2.0,3568.0,red,Fiction,2,0,3,1.0,1.0,937.0,-2
S175,NF-1046,14.0,2.0,4489.0,red,Fiction,3,2,1,1.0,1.0,945.0,-2
S175,NF-1053,15.0,2.0,3347.0,red,Fiction,1,0,2,1.0,1.0,1041.0,-2
S175,NF-1080,16.0,2.0,5535.0,red,Fiction,2,2,3,1.0,1.0,1191.0,2
S175,NF-1082,17.0,2.0,6062.0,red,Fiction,3,2,4,1.0,1.0,1199.0,-1
S175,NF-1014,18.0,2.0,2793.0,red,Fiction,0,0,1,1.0,1.0,1189.0,2
S175,NF-1040,19.0,2.0,3486.0,green,Reality,0,0,3,1.0,1.0,1006.0,1
S175,NF-1079,20.0,2.0,3463.0,green,Reality,1,2,2,1.0,1.0,1135.0,-2
S175,NF-1073,21.0,2.0,11430.0,red,Fiction,2,2,4,1.0,1.0,1872.0,0
S175,NF-1056,22.0,2.0,3762.0,green,Reality,2,2,4,1.0,1.0,959.0,-3
S175,NF-1108,23.0,2.0,6083.0,green,Reality,4,3,5,1.0,1.0,1015.0,2
S175,NF-1094,24.0,2.0,3271.0,green,Reality,3,3,3,1.0,1.0,1211.0,0
S175,NF-1026,25.0,2.0,4373.0,green,Reality,2,0,2,1.0,1.0,1040.0,-2
S175,NF-1015,26.0,2.0,6816.0,green,Reality,2,1,3,1.0,1.0,1141.0,-3
S175,NM-1104,27.0,2.0,2898.0,red,Fiction,0,0,0,1.0,1.0,967.0,-2
S175,NF-1089,28.0,2.0,2927.0,red,Fiction,0,0,0,1.0,1.0,1295.0,0
S175,NF-1028,29.0,2.0,3335.0,red,Fiction,2,0,0,1.0,1.0,769.0,-3
S175,NF-1048,30.0,2.0,5537.0,red,Fiction,3,1,2,1.0,1.0,1236.0,3
S175,NF-1020,31.0,2.0,5093.0,green,Reality,1,0,1,1.0,1.0,1059.0,-3
S175,NF-1103,32.0,2.0,6374.0,green,Reality,3,0,6,1.0,1.0,1691.0,2
S175,NF-1088,33.0,2.0,3633.0,red,Fiction,2,1,2,1.0,1.0,1401.0,1
S175,NF-1069,34.0,2.0,2933.0,red,Fiction,2,1,2,1.0,1.0,1125.0,-2
S175,NF-1072,35.0,2.0,6921.0,red,Fiction,4,1,3,1.0,1.0,1059.0,-2
S175,NF-1095,36.0,2.0,3577.0,green,Reality,2,0,2,1.0,1.0,1056.0,3
S175,NF-1087,37.0,2.0,2747.0,red,Fiction,0,0,2,1.0,1.0,1504.0,-3
S175,NF-1036,38.0,2.0,8567.0,red,Fiction,1,0,2,1.0,1.0,965.0,1
S175,NF-1016,39.0,2.0,3576.0,green,Reality,2,1,3,1.0,1.0,1020.0,-3
S175,NF-1047,40.0,2.0,3142.0,red,Fiction,0,0,1,1.0,1.0,929.0,-3
S175,NF-1084,41.0,2.0,4735.0,red,Fiction,2,0,1,1.0,1.0,848.0,3
S175,NF-1096,42.0,2.0,3628.0,green,Reality,3,1,2,1.0,1.0,787.0,-2
S175,NF-1097,43.0,2.0,2776.0,green,Reality,3,1,3,1.0,1.0,947.0,-3
S175,NF-1071,44.0,2.0,3169.0,green,Reality,0,0,0,1.0,1.0,810.0,-3
S175,NF-1005,45.0,2.0,2430.0,red,Fiction,0,0,0,1.0,1.0,1348.0,1
S175,NF-1024,46.0,2.0,3280.0,red,Fiction,3,1,3,1.0,1.0,1213.0,-2
S175,NF-1002,47.0,2.0,3507.0,green,Reality,1,0,1,1.0,1.0,1321.0,-3
S175,NF-1021,48.0,2.0,4307.0,red,Fiction,3,0,3,1.0,1.0,1248.0,2
S175,NF-1013,49.0,2.0,4307.0,green,Reality,3,0,4,1.0,1.0,1792.0,3
S175,NF-1050,50.0,2.0,5355.0,red,Fiction,3,0,2,1.0,1.0,1293.0,-2
S175,NF-1003,51.0,2.0,5762.0,red,Fiction,4,2,2,1.0,1.0,1025.0,-1
S175,NF-1041,52.0,2.0,4763.0,green,Reality,2,0,1,1.0,1.0,1352.0,-1
S175,NF-1059,53.0,2.0,3165.0,red,Fiction,0,0,0,1.0,1.0,1046.0,-2
S175,NF-1022,54.0,2.0,3768.0,green,Reality,3,0,3,1.0,1.0,1168.0,-1
S175,NF-1043,55.0,2.0,3265.0,green,Reality,3,1,2,1.0,1.0,878.0,-3
S175,NF-1065,56.0,2.0,3881.0,red,Fiction,2,0,2,1.0,1.0,1373.0,-1
S175,NM-1092,57.0,2.0,6633.0,green,Reality,2,1,4,1.0,1.0,985.0,-3
S175,NM-1058,58.0,2.0,4561.0,red,Fiction,4,2,3,1.0,1.0,1282.0,2
S175,NF-1086,59.0,2.0,5120.0,green,Reality,3,2,4,1.0,1.0,1164.0,1
S175,NF-1045,60.0,2.0,3938.0,green,Reality,3,1,4,1.0,1.0,1289.0,-3
S175,NF-1106,61.0,2.0,4257.0,red,Fiction,2,0,1,1.0,1.0,968.0,-3
S175,NM-1019,62.0,2.0,3324.0,green,Reality,1,0,3,1.0,1.0,1523.0,2
S175,NF-1110,63.0,2.0,3306.0,green,Reality,0,0,2,1.0,1.0,968.0,-3
S175,NF-1001,64.0,2.0,2103.0,red,Fiction,0,0,0,1.0,1.0,1744.0,-3
S175,NM-1074,65.0,2.0,2881.0,red,Fiction,2,0,2,1.0,1.0,1654.0,-3
S175,NF-1093,66.0,2.0,4244.0,red,Fiction,2,0,3,1.0,1.0,1926.0,-2
S175,NF-1017,67.0,2.0,4047.0,green,Reality,3,1,4,1.0,1.0,1006.0,3
S175,NF-1109,68.0,2.0,5289.0,green,Reality,2,0,2,1.0,1.0,1842.0,-1
S175,NF-1060,69.0,2.0,5228.0,green,Reality,2,1,3,1.0,1.0,851.0,3
S175,NF-1054,70.0,2.0,3051.0,green,Reality,0,0,0,1.0,1.0,887.0,-2
S175,NF-1085,71.0,2.0,3233.0,green,Reality,2,0,3,1.0,1.0,1456.0,-2
S175,NF-1101,72.0,2.0,4725.0,green,Reality,3,2,5,1.0,1.0,1076.0,2
S175,NM-1064,73.0,2.0,6034.0,green,Reality,5,4,4,1.0,1.0,917.0,3
S175,NF-1004,74.0,2.0,7235.0,green,Reality,4,1,3,1.0,1.0,1088.0,3
S175,NF-1067,75.0,2.0,6447.0,green,Reality,1,2,2,1.0,1.0,946.0,2
S175,NF-1081,76.0,2.0,5098.0,green,Reality,2,1,1,1.0,1.0,1305.0,2
S175,NM-1027,77.0,2.0,3359.0,red,Fiction,0,0,2,1.0,1.0,1037.0,-3
S175,NF-1023,78.0,2.0,5606.0,red,Fiction,3,2,3,1.0,1.0,1100.0,3
S175,NM-1038,79.0,2.0,4055.0,red,Fiction,3,2,4,1.0,1.0,775.0,-3
S175,NM-1011,80.0,2.0,5275.0,green,Reality,2,0,3,1.0,1.0,1174.0,2
S175,NF-1018,81.0,2.0,5336.0,red,Fiction,3,2,3,1.0,1.0,1675.0,-3
S175,NM-1102,82.0,2.0,2827.0,green,Reality,0,0,0,1.0,1.0,1269.0,-3
S175,NF-1057,83.0,2.0,5038.0,green,Reality,1,0,1,1.0,1.0,1378.0,2
S175,NF-1076,84.0,2.0,10377.0,red,Fiction,6,4,3,1.0,1.0,1125.0,2
S175,NM-1052,85.0,2.0,5117.0,green,Reality,1,0,2,1.0,1.0,1686.0,2
S175,NF-1049,86.0,2.0,3549.0,green,Reality,3,1,2,1.0,1.0,1134.0,-2
S175,NM-1035,87.0,2.0,4126.0,red,Fiction,3,2,3,1.0,1.0,992.0,-3
S175,NF-1034,88.0,2.0,3368.0,green,Reality,0,0,2,1.0,1.0,1335.0,-2
S175,NM-1029,89.0,2.0,6381.0,green,Reality,2,2,2,1.0,1.0,5938.0,2
S175,NF-1009,90.0,2.0,4254.0,red,Fiction,2,0,3,1.0,1.0,1253.0,-3
S175,NF-1042,91.0,2.0,3674.0,red,Fiction,3,1,3,1.0,1.0,1392.0,2
S175,NF-1030,92.0,2.0,3889.0,green,Reality,3,0,2,1.0,1.0,1183.0,0
S175,NF-1066,93.0,2.0,4300.0,red,Fiction,3,1,2,1.0,1.0,1052.0,-2
S175,NF-1083,94.0,2.0,3513.0,red,Fiction,2,0,1,1.0,1.0,935.0,1
S175,NF-1075,95.0,2.0,4011.0,green,Reality,2,0,1,1.0,1.0,1188.0,-3
S175,NF-1012,96.0,2.0,3069.0,red,Fiction,1,0,1,1.0,1.0,748.0,-3
S175,NF-1105,97.0,2.0,4697.0,green,Reality,2,1,2,1.0,1.0,1168.0,0
S175,NF-1077,98.0,2.0,4248.0,red,Fiction,2,0,1,1.0,1.0,1596.0,2
S175,NM-1033,99.0,2.0,6782.0,red,Fiction,1,3,0,1.0,1.0,1056.0,-1
S175,NM-1055,100.0,2.0,3504.0,red,Fiction,1,1,1,1.0,1.0,1252.0,-2
S175,NF-1031,101.0,2.0,4683.0,green,Reality,3,0,3,1.0,1.0,999.0,0
S175,NM-1010,102.0,2.0,6186.0,red,Fiction,1,0,4,1.0,1.0,1723.0,-3
S175,NF-1107,103.0,2.0,3463.0,red,Fiction,3,1,1,1.0,1.0,906.0,1
S175,NF-1100,104.0,2.0,4651.0,green,Reality,2,0,1,1.0,1.0,1016.0,3
S175,NF-1068,105.0,2.0,7317.0,red,Fiction,4,3,2,1.0,1.0,1087.0,0
S175,NF-1061,106.0,2.0,6752.0,green,Reality,4,3,3,1.0,1.0,2082.0,2
S175,NF-1098,107.0,2.0,4193.0,red,Fiction,3,1,2,1.0,1.0,1084.0,3
S175,NM-1070,108.0,2.0,5390.0,red,Fiction,1,0,3,1.0,1.0,1164.0,-2
S175,NF-1044,109.0,2.0,5367.0,green,Reality,2,1,4,1.0,1.0,1065.0,-2
