Participant,Stimulus,Trial_Order_Phase1,Trial_Duration_Phase1,Rating_RT_Phase1,Cue_Color,Condition,Arousal,Enticing,Valence,Trial_Order_Phase2,Trial_Duration_Phase2,Rating_RT_Phase2,Realness
S008,Opposite-sex_couple_019_v,1.0,2.0,34494.0,blue,Reality,2,4,5,1.0,1.0,4653.0,1
S008,Opposite-sex_couple_007_h,2.0,2.0,9310.0,green,Fiction,4,4,5,1.0,1.0,3226.0,-3
S008,Female_022_h,3.0,2.0,9815.0,green,Fiction,6,5,6,1.0,1.0,2351.0,-1
S008,Opposite-sex_couple_042_h,4.0,2.0,8643.0,green,Fiction,4,3,4,1.0,1.0,1898.0,2
S008,Female_004_v,5.0,2.0,8427.0,green,Fiction,4,3,5,1.0,1.0,1860.0,2
S008,Female_013_h,6.0,2.0,8463.0,blue,Reality,5,5,6,1.0,1.0,2900.0,-3
S008,Female_006_v,7.0,2.0,5852.0,green,Fiction,5,4,5,1.0,1.0,2225.0,2
S008,Opposite-sex_couple_008_h,8.0,2.0,4797.0,green,Fiction,6,5,6,1.0,1.0,2778.0,0
S008,Female_007_v,9.0,2.0,6270.0,blue,Reality,5,4,5,1.0,1.0,3138.0,2
S008,Female_023_h,10.0,2.0,7524.0,blue,Reality,4,4,5,1.0,1.0,3174.0,0
S008,Female_018_h,11.0,2.0,6478.0,green,Fiction,5,4,5,1.0,1.0,2572.0,1
S008,Female_001_h,12.0,2.0,4877.0,blue,Reality,6,5,6,1.0,1.0,2523.0,-1
S008,Female_021_h,13.0,2.0,7488.0,green,Fiction,5,5,6,1.0,1.0,2093.0,1
S008,Female_015_v,14.0,2.0,6724.0,blue,Reality,4,5,4,1.0,1.0,9213.0,1
S008,Opposite-sex_couple_024_h,15.0,2.0,10443.0,blue,Reality,6,5,6,1.0,1.0,2138.0,2
S008,Female_024_v,16.0,2.0,5289.0,green,Fiction,5,4,5,1.0,1.0,2033.0,0
S008,Opposite-sex_couple_014_h,17.0,2.0,6407.0,green,Fiction,6,5,6,1.0,1.0,4030.0,3
S008,Opposite-sex_couple_020_h,18.0,2.0,7387.0,blue,Reality,5,5,6,1.0,1.0,2128.0,2
S008,Opposite-sex_couple_012_h,19.0,2.0,6461.0,green,Fiction,6,4,6,1.0,1.0,2272.0,2
S008,Opposite-sex_couple_016_v,20.0,2.0,8909.0,green,Fiction,5,5,4,1.0,1.0,2246.0,1
S008,Female_020_v,21.0,2.0,5793.0,blue,Reality,5,4,5,1.0,1.0,2267.0,2
S008,Female_011_h,22.0,2.0,5091.0,blue,Reality,4,5,5,1.0,1.0,2794.0,1
S008,Opposite-sex_couple_001_v,23.0,2.0,5178.0,blue,Reality,4,5,4,1.0,1.0,1440.0,2
S008,Opposite-sex_couple_035_h,24.0,2.0,5284.0,blue,Reality,4,4,5,1.0,1.0,6010.0,1
S008,Opposite-sex_couple_033_v,25.0,2.0,6311.0,blue,Reality,5,5,4,1.0,1.0,1731.0,0
S008,Opposite-sex_couple_025_h,26.0,2.0,8083.0,green,Fiction,6,5,6,1.0,1.0,3071.0,0
S008,Opposite-sex_couple_009_h,27.0,2.0,5553.0,green,Fiction,6,5,6,1.0,1.0,2661.0,2
S008,Female_008_v,28.0,2.0,6996.0,blue,Reality,6,5,6,1.0,1.0,1819.0,1
S008,Opposite-sex_couple_013_h,29.0,2.0,5312.0,green,Fiction,5,4,6,1.0,1.0,1960.0,-1
S008,Female_009_h,30.0,2.0,6987.0,green,Fiction,6,5,5,1.0,1.0,1962.0,-1
S008,Female_014_v,31.0,2.0,4159.0,blue,Reality,4,5,4,1.0,1.0,1992.0,2
S008,Opposite-sex_couple_047_v,32.0,2.0,5521.0,green,Fiction,5,4,5,1.0,1.0,1620.0,1
S008,Female_017_v,33.0,2.0,7417.0,blue,Reality,6,5,5,1.0,1.0,2916.0,-1
S008,Opposite-sex_couple_011_h,34.0,2.0,6987.0,blue,Reality,6,5,6,1.0,1.0,5024.0,0
S008,Female_003_v,35.0,2.0,11019.0,green,Fiction,6,5,5,1.0,1.0,1769.0,2
S008,Opposite-sex_couple_022_v,36.0,2.0,7743.0,blue,Reality,5,4,6,1.0,1.0,3739.0,1
S008,Female_010_h,37.0,2.0,5813.0,green,Fiction,6,5,5,1.0,1.0,1910.0,-2
S008,Female_002_h,38.0,2.0,4725.0,blue,Reality,6,5,6,1.0,1.0,4611.0,-1
S008,Female_012_v,39.0,2.0,5699.0,green,Fiction,5,5,6,1.0,1.0,1922.0,-1
S008,Opposite-sex_couple_002_h,40.0,2.0,5762.0,blue,Reality,6,6,5,1.0,1.0,2243.0,2
S008,Opposite-sex_couple_017_v,41.0,2.0,6608.0,green,Fiction,6,5,5,1.0,1.0,1365.0,2
S008,Female_005_v,42.0,2.0,7639.0,green,Fiction,4,3,4,1.0,1.0,3765.0,2
S008,Opposite-sex_couple_015_h,43.0,2.0,7094.0,blue,Reality,5,5,6,1.0,1.0,2503.0,2
S008,Opposite-sex_couple_018_h,44.0,2.0,8822.0,green,Fiction,6,6,6,1.0,1.0,2405.0,1
S008,Opposite-sex_couple_005_h,45.0,2.0,7078.0,blue,Reality,6,6,6,1.0,1.0,7384.0,1
S008,Female_025_h,46.0,2.0,4623.0,green,Fiction,5,6,5,1.0,1.0,2001.0,-1
S008,Opposite-sex_couple_048_h,47.0,2.0,5931.0,blue,Reality,5,6,5,1.0,1.0,2233.0,2
S008,Opposite-sex_couple_023_h,48.0,2.0,5559.0,blue,Reality,6,6,6,1.0,1.0,2156.0,1
S008,Female_019_h,49.0,2.0,4592.0,blue,Reality,5,4,5,1.0,1.0,2299.0,2
S008,Female_016_h,50.0,2.0,5212.0,blue,Reality,4,6,3,1.0,1.0,1724.0,1
S019,Male_couple_029_h,1.0,2.0,20193.0,blue,Fiction,1,6,3,1.0,1.0,1377.0,3
S019,Male_couple_010_h,2.0,2.0,8935.0,green,Reality,1,5,1,1.0,1.0,1179.0,3
S019,Male_couple_011_v,3.0,2.0,11694.0,green,Reality,2,2,3,1.0,1.0,1609.0,3
S019,Male_011_v,4.0,2.0,5458.0,green,Reality,6,6,6,1.0,1.0,1997.0,-1
S019,Male_002_v,5.0,2.0,8163.0,green,Reality,5,6,6,1.0,1.0,3000.0,-2
S019,Male_couple_006_h,6.0,2.0,41785.0,green,Reality,1,4,5,1.0,1.0,2091.0,-3
S019,Male_couple_009_v,7.0,2.0,7873.0,blue,Fiction,4,5,5,1.0,1.0,3477.0,1
S019,Male_015_v,8.0,2.0,9961.0,blue,Fiction,5,6,5,1.0,1.0,2243.0,0
S019,Male_025_v,9.0,2.0,8242.0,green,Reality,4,5,3,1.0,1.0,2248.0,-1
S019,Male_013_v,10.0,2.0,6098.0,green,Reality,5,4,4,1.0,1.0,1967.0,-2
S019,Male_couple_002_h,11.0,2.0,5925.0,blue,Fiction,3,5,5,1.0,1.0,1504.0,2
S019,Male_couple_013_h,12.0,2.0,17146.0,green,Reality,3,5,5,1.0,1.0,3309.0,0
S019,Male_018_v,13.0,2.0,4944.0,blue,Fiction,4,5,4,1.0,1.0,2516.0,3
S019,Male_023_v,14.0,2.0,5872.0,blue,Fiction,4,5,6,1.0,1.0,1322.0,3
S019,Male_024_h,15.0,2.0,5378.0,green,Reality,5,6,6,1.0,1.0,1372.0,3
S019,Male_019_h,16.0,2.0,5129.0,blue,Fiction,6,6,6,1.0,1.0,2374.0,0
S019,Male_couple_037_v,17.0,2.0,5405.0,green,Reality,5,6,5,1.0,1.0,3367.0,3
S019,Male_001_v,18.0,2.0,5735.0,green,Reality,4,5,5,1.0,1.0,1952.0,0
S019,Male_couple_023_v,19.0,2.0,7345.0,blue,Fiction,4,6,5,1.0,1.0,3398.0,-3
S019,Male_021_h,20.0,2.0,5031.0,blue,Fiction,6,6,6,1.0,1.0,1927.0,-2
S019,Male_022_v,21.0,2.0,11019.0,blue,Fiction,6,5,6,1.0,1.0,2830.0,0
S019,Male_couple_044_h,22.0,2.0,3863.0,green,Reality,6,5,6,1.0,1.0,1577.0,3
S019,Male_008_v,23.0,2.0,4900.0,blue,Fiction,6,6,6,1.0,1.0,1537.0,3
S019,Male_couple_022_v,24.0,2.0,5148.0,green,Reality,5,5,5,1.0,1.0,1508.0,3
S019,Male_couple_012_v,25.0,2.0,7675.0,blue,Fiction,4,5,6,1.0,1.0,1931.0,0
S019,Male_couple_018_h,26.0,2.0,5324.0,green,Reality,5,6,5,1.0,1.0,2410.0,3
S019,Male_couple_025_v,27.0,2.0,5665.0,blue,Fiction,5,6,5,1.0,1.0,1197.0,2
S019,Male_004_v,28.0,2.0,7025.0,green,Reality,6,6,6,1.0,1.0,1452.0,2
S019,Male_couple_003_v,29.0,2.0,5671.0,blue,Fiction,6,6,6,1.0,1.0,2938.0,0
S019,Male_couple_047_h,30.0,2.0,5149.0,blue,Fiction,4,6,5,1.0,1.0,2057.0,3
S019,Male_couple_014_h,31.0,2.0,4836.0,green,Reality,5,6,5,1.0,1.0,1333.0,3
S019,Male_couple_024_h,32.0,2.0,5526.0,blue,Fiction,6,6,6,1.0,1.0,1753.0,2
S019,Male_couple_015_v,33.0,2.0,5823.0,green,Reality,5,6,5,1.0,1.0,3179.0,1
S019,Male_couple_021_h,34.0,2.0,4554.0,green,Reality,6,6,6,1.0,1.0,7955.0,3
S019,Male_006_v,35.0,2.0,5717.0,green,Reality,4,5,3,1.0,1.0,2470.0,2
S019,Male_009_v,36.0,2.0,6291.0,blue,Fiction,5,6,6,1.0,1.0,1954.0,-1
S019,Male_couple_007_v,37.0,2.0,6894.0,green,Reality,4,6,4,1.0,1.0,2280.0,-3
S019,Male_couple_019_h,38.0,2.0,5107.0,blue,Fiction,3,5,5,1.0,1.0,1220.0,2
S019,Male_003_v,39.0,2.0,5657.0,blue,Fiction,6,6,6,1.0,1.0,1432.0,3
S019,Male_017_v,40.0,2.0,5467.0,green,Reality,5,6,5,1.0,1.0,2127.0,1
S019,Male_012_h,41.0,2.0,5814.0,green,Reality,5,6,5,1.0,1.0,1510.0,2
S019,Male_couple_020_h,42.0,2.0,8048.0,blue,Fiction,4,5,5,1.0,1.0,2352.0,-1
S019,Male_014_v,43.0,2.0,5223.0,blue,Fiction,5,4,6,1.0,1.0,2293.0,2
S019,Male_007_h,44.0,2.0,5106.0,green,Reality,5,6,5,1.0,1.0,1614.0,-1
S019,Male_005_v,45.0,2.0,6803.0,green,Reality,5,4,4,1.0,1.0,2741.0,0
S019,Male_016_v,46.0,2.0,8742.0,blue,Fiction,5,4,5,1.0,1.0,2071.0,2
S019,Male_010_v,47.0,2.0,5586.0,blue,Fiction,6,6,6,1.0,1.0,1583.0,0
S019,Male_020_v,48.0,2.0,4596.0,green,Reality,6,6,6,1.0,1.0,1857.0,-1
S019,Male_couple_016_h,49.0,2.0,7399.0,blue,Fiction,5,6,5,1.0,1.0,1750.0,2
S019,Male_couple_033_v,50.0,2.0,6137.0,green,Reality,5,6,6,1.0,1.0,2479.0,2
S002,Opposite-sex_couple_002_h,1.0,2.0,8280.0,green,Fiction,6,4,6,1.0,1.0,4813.0,2
S002,Opposite-sex_couple_007_h,2.0,2.0,11401.0,green,Fiction,2,4,4,1.0,1.0,2471.0,1
S002,Female_020_v,3.0,2.0,5736.0,red,Reality,6,6,6,1.0,1.0,1753.0,3
S002,Female_005_v,4.0,2.0,10024.0,red,Reality,3,5,3,1.0,1.0,1859.0,3
S002,Female_012_v,5.0,2.0,8433.0,green,Fiction,3,5,3,1.0,1.0,2458.0,-2
S002,Opposite-sex_couple_048_h,6.0,2.0,8697.0,red,Reality,1,3,0,1.0,1.0,2685.0,3
S002,Opposite-sex_couple_012_h,7.0,2.0,6815.0,red,Reality,0,3,0,1.0,1.0,1729.0,3
S002,Opposite-sex_couple_023_h,8.0,2.0,9293.0,red,Reality,3,5,3,1.0,1.0,1939.0,1
S002,Opposite-sex_couple_022_v,9.0,2.0,6190.0,red,Reality,0,2,1,1.0,1.0,3883.0,3
S002,Opposite-sex_couple_024_h,10.0,2.0,8328.0,red,Reality,3,4,2,1.0,1.0,2128.0,3
S002,Opposite-sex_couple_017_v,11.0,2.0,7088.0,red,Reality,0,4,1,1.0,1.0,2910.0,-2
S002,Female_010_h,12.0,2.0,6267.0,red,Reality,0,4,0,1.0,1.0,2266.0,-3
S002,Opposite-sex_couple_001_v,13.0,2.0,4965.0,green,Fiction,0,2,0,1.0,1.0,1425.0,-3
S002,Female_011_h,14.0,2.0,6690.0,green,Fiction,0,1,0,1.0,1.0,1738.0,-3
S002,Female_025_h,15.0,2.0,9849.0,red,Reality,0,3,0,1.0,1.0,1810.0,-3
S002,Female_006_v,16.0,2.0,8218.0,green,Fiction,1,6,0,1.0,1.0,1610.0,-3
S002,Female_003_v,17.0,2.0,7502.0,red,Reality,1,4,1,1.0,1.0,1759.0,-3
S002,Female_023_h,18.0,2.0,13994.0,green,Fiction,0,3,0,1.0,1.0,2792.0,1
S002,Opposite-sex_couple_042_h,19.0,2.0,9673.0,red,Reality,0,1,2,1.0,1.0,2258.0,1
S002,Opposite-sex_couple_019_v,20.0,2.0,9054.0,green,Fiction,0,0,1,1.0,1.0,2710.0,-1
S002,Opposite-sex_couple_009_h,21.0,2.0,10663.0,green,Fiction,0,2,3,1.0,1.0,2020.0,-2
S002,Opposite-sex_couple_025_h,22.0,2.0,32996.0,green,Fiction,0,6,0,1.0,1.0,2245.0,3
S002,Female_007_v,23.0,2.0,17133.0,red,Reality,0,4,0,1.0,1.0,2874.0,-3
S002,Female_022_h,24.0,2.0,8866.0,red,Reality,4,6,5,1.0,1.0,2766.0,2
S002,Female_019_h,25.0,2.0,7964.0,green,Fiction,2,4,4,1.0,1.0,2041.0,2
S002,Opposite-sex_couple_011_h,26.0,2.0,7274.0,red,Reality,0,3,3,1.0,1.0,2210.0,1
S002,Female_021_h,27.0,2.0,5445.0,green,Fiction,6,6,6,1.0,1.0,4380.0,1
S002,Female_024_v,28.0,2.0,7571.0,red,Reality,4,5,3,1.0,1.0,3295.0,3
S002,Opposite-sex_couple_016_v,29.0,2.0,6362.0,green,Fiction,0,2,3,1.0,1.0,2405.0,1
S002,Female_014_v,30.0,2.0,8615.0,green,Fiction,1,4,3,1.0,1.0,1737.0,-3
S002,Female_013_h,31.0,2.0,9300.0,green,Fiction,2,6,4,1.0,1.0,1991.0,-3
S002,Opposite-sex_couple_005_h,32.0,2.0,13433.0,red,Reality,3,3,2,1.0,1.0,2967.0,1
S002,Female_015_v,33.0,2.0,7917.0,green,Fiction,0,3,3,1.0,1.0,2123.0,-3
S002,Female_002_h,34.0,2.0,4862.0,red,Reality,6,6,6,1.0,1.0,2159.0,1
S002,Female_004_v,35.0,2.0,5950.0,red,Reality,3,4,5,1.0,1.0,1907.0,-3
S002,Female_001_h,36.0,2.0,11903.0,red,Reality,2,6,4,1.0,1.0,2827.0,-2
S002,Opposite-sex_couple_013_h,37.0,2.0,36872.0,green,Fiction,0,3,3,1.0,1.0,1628.0,3
S002,Opposite-sex_couple_047_v,38.0,2.0,6556.0,red,Reality,0,4,3,1.0,1.0,2150.0,3
S002,Female_009_h,39.0,2.0,9002.0,green,Fiction,0,5,3,1.0,1.0,1618.0,-3
S002,Female_016_h,40.0,2.0,4330.0,red,Reality,6,6,6,1.0,1.0,1917.0,3
S002,Female_008_v,41.0,2.0,6814.0,red,Reality,2,5,4,1.0,1.0,1819.0,-3
S002,Opposite-sex_couple_008_h,42.0,2.0,9061.0,green,Fiction,0,3,2,1.0,1.0,2394.0,-3
S002,Opposite-sex_couple_018_h,43.0,2.0,7102.0,red,Reality,5,6,6,1.0,1.0,3478.0,2
S002,Opposite-sex_couple_020_h,44.0,2.0,8829.0,green,Fiction,2,4,3,1.0,1.0,2407.0,2
S002,Opposite-sex_couple_014_h,45.0,2.0,8526.0,green,Fiction,1,6,4,1.0,1.0,2143.0,2
S002,Opposite-sex_couple_015_h,46.0,2.0,7638.0,green,Fiction,2,5,3,1.0,1.0,2112.0,3
S002,Opposite-sex_couple_033_v,47.0,2.0,7104.0,red,Reality,0,4,1,1.0,1.0,3314.0,2
S002,Female_018_h,48.0,2.0,9118.0,green,Fiction,3,4,4,1.0,1.0,1873.0,3
S002,Opposite-sex_couple_035_h,49.0,2.0,4417.0,red,Reality,0,4,3,1.0,1.0,4813.0,2
S002,Female_017_v,50.0,2.0,9683.0,green,Fiction,2,3,4,1.0,1.0,2285.0,-3
S011,Female_007_v,1.0,2.0,6668.0,red,Reality,6,6,6,1.0,1.0,1672.0,3
S011,Opposite-sex_couple_014_h,2.0,2.0,5744.0,red,Reality,6,6,6,1.0,1.0,2342.0,2
S011,Female_004_v,3.0,2.0,4595.0,red,Reality,6,6,6,1.0,1.0,1179.0,-3
S011,Opposite-sex_couple_008_h,4.0,2.0,4334.0,red,Reality,6,6,6,1.0,1.0,1218.0,2
S011,Female_021_h,5.0,2.0,5357.0,blue,Fiction,6,6,6,1.0,1.0,1305.0,-1
S011,Opposite-sex_couple_002_h,6.0,2.0,3185.0,blue,Fiction,6,6,5,1.0,1.0,975.0,3
S011,Female_009_h,7.0,2.0,2924.0,red,Reality,6,6,6,1.0,1.0,1425.0,3
S011,Opposite-sex_couple_017_v,8.0,2.0,4682.0,blue,Fiction,1,2,1,1.0,1.0,1007.0,3
S011,Opposite-sex_couple_016_v,9.0,2.0,2888.0,red,Reality,1,3,2,1.0,1.0,1068.0,-1
S011,Opposite-sex_couple_047_v,10.0,2.0,2682.0,blue,Fiction,0,0,0,1.0,1.0,1216.0,-2
S011,Opposite-sex_couple_013_h,11.0,2.0,6413.0,red,Reality,3,2,2,1.0,1.0,1582.0,-2
S011,Female_011_h,12.0,2.0,5098.0,blue,Fiction,4,3,2,1.0,1.0,1003.0,-3
S011,Female_012_v,13.0,2.0,3444.0,blue,Fiction,4,3,2,1.0,1.0,1212.0,-2
S011,Opposite-sex_couple_020_h,14.0,2.0,4261.0,blue,Fiction,1,1,1,1.0,1.0,935.0,3
S011,Female_024_v,15.0,2.0,3274.0,red,Reality,3,1,1,1.0,1.0,915.0,2
S011,Female_014_v,16.0,2.0,2589.0,red,Reality,0,0,0,1.0,1.0,915.0,3
S011,Female_015_v,17.0,2.0,2937.0,blue,Fiction,1,1,1,1.0,1.0,1257.0,-3
S011,Opposite-sex_couple_001_v,18.0,2.0,2548.0,blue,Fiction,2,0,1,1.0,1.0,4939.0,3
S011,Opposite-sex_couple_042_h,19.0,2.0,2492.0,blue,Fiction,0,1,1,1.0,1.0,995.0,-3
S011,Female_018_h,20.0,2.0,4056.0,red,Reality,6,6,5,1.0,1.0,998.0,2
S011,Female_023_h,21.0,2.0,3404.0,blue,Fiction,6,6,6,1.0,1.0,1267.0,2
S011,Female_025_h,22.0,2.0,2469.0,blue,Fiction,0,1,0,1.0,1.0,8776.0,2
S011,Opposite-sex_couple_019_v,23.0,2.0,2636.0,red,Reality,0,0,0,1.0,1.0,1092.0,-3
S011,Female_001_h,24.0,2.0,3440.0,red,Reality,5,5,5,1.0,1.0,1346.0,3
S011,Opposite-sex_couple_048_h,25.0,2.0,2632.0,blue,Fiction,1,1,1,1.0,1.0,1014.0,2
S011,Opposite-sex_couple_023_h,26.0,2.0,3476.0,blue,Fiction,2,3,2,1.0,1.0,1066.0,-2
S011,Opposite-sex_couple_009_h,27.0,2.0,2810.0,red,Reality,2,1,1,1.0,1.0,1116.0,3
S011,Opposite-sex_couple_015_h,28.0,2.0,2730.0,red,Reality,4,4,6,1.0,1.0,970.0,3
S011,Female_013_h,29.0,2.0,3483.0,red,Reality,6,5,6,1.0,1.0,1334.0,-1
S011,Opposite-sex_couple_033_v,30.0,2.0,2621.0,red,Reality,5,5,5,1.0,1.0,1424.0,2
S011,Female_002_h,31.0,2.0,2549.0,red,Reality,6,6,6,1.0,1.0,1188.0,2
S011,Opposite-sex_couple_018_h,32.0,2.0,3295.0,red,Reality,6,6,6,1.0,1.0,1023.0,3
S011,Female_006_v,33.0,2.0,4207.0,red,Reality,6,5,6,1.0,1.0,1642.0,3
S011,Female_019_h,34.0,2.0,3215.0,red,Reality,6,6,6,1.0,1.0,965.0,3
S011,Female_005_v,35.0,2.0,2638.0,blue,Fiction,6,6,6,1.0,1.0,1116.0,3
S011,Opposite-sex_couple_024_h,36.0,2.0,3615.0,red,Reality,6,6,6,1.0,1.0,1072.0,3
S011,Female_020_v,37.0,2.0,3404.0,blue,Fiction,6,6,6,1.0,1.0,1238.0,3
S011,Opposite-sex_couple_007_h,38.0,2.0,3666.0,blue,Fiction,2,1,2,1.0,1.0,1719.0,-2
S011,Female_017_v,39.0,2.0,2754.0,blue,Fiction,5,5,5,1.0,1.0,2185.0,-1
S011,Female_010_h,40.0,2.0,3119.0,red,Reality,6,6,4,1.0,1.0,1960.0,1
S011,Opposite-sex_couple_035_h,41.0,2.0,3834.0,blue,Fiction,0,1,3,1.0,1.0,1728.0,-3
S011,Opposite-sex_couple_022_v,42.0,2.0,2139.0,red,Reality,0,0,0,1.0,1.0,950.0,3
S011,Opposite-sex_couple_025_h,43.0,2.0,2660.0,red,Reality,6,5,6,1.0,1.0,1797.0,2
S011,Female_008_v,44.0,2.0,3557.0,blue,Fiction,6,6,6,1.0,1.0,1097.0,1
S011,Female_016_h,45.0,2.0,2555.0,red,Reality,0,0,0,1.0,1.0,980.0,-3
S011,Opposite-sex_couple_005_h,46.0,2.0,3021.0,blue,Fiction,5,5,6,1.0,1.0,864.0,3
S011,Opposite-sex_couple_011_h,47.0,2.0,3197.0,red,Reality,2,5,4,1.0,1.0,1119.0,2
S011,Opposite-sex_couple_012_h,48.0,2.0,2479.0,blue,Fiction,6,6,6,1.0,1.0,1241.0,2
S011,Female_022_h,49.0,2.0,2760.0,blue,Fiction,6,6,6,1.0,1.0,9546.0,1
S011,Female_003_v,50.0,2.0,2675.0,blue,Fiction,5,5,4,1.0,1.0,1375.0,3
S005,Male_008_v,1.0,2.0,10262.0,blue,Reality,5,5,4,1.0,1.0,1057.0,3
S005,Opposite-sex_couple_016_v,2.0,2.0,7691.0,blue,Reality,6,6,6,1.0,1.0,1136.0,3
S005,Male_022_v,3.0,2.0,5438.0,red,Fiction,0,0,0,1.0,1.0,3156.0,0
S005,Male_004_v,4.0,2.0,5156.0,blue,Reality,0,0,0,1.0,1.0,1873.0,-1
S005,Male_017_v,5.0,2.0,5481.0,blue,Reality,0,0,0,1.0,1.0,1158.0,3
S005,Male_005_v,6.0,2.0,6637.0,red,Fiction,4,4,4,1.0,1.0,1295.0,-3
S005,Opposite-sex_couple_047_v,7.0,2.0,7834.0,blue,Reality,3,3,2,1.0,1.0,1773.0,0
S005,Male_007_h,8.0,2.0,4632.0,red,Fiction,0,0,0,1.0,1.0,1167.0,3
S005,Opposite-sex_couple_033_v,9.0,2.0,9190.0,blue,Reality,5,6,6,1.0,1.0,976.0,3
S005,Male_002_v,10.0,2.0,4676.0,red,Fiction,0,0,0,1.0,1.0,1220.0,3
S005,Opposite-sex_couple_008_h,11.0,2.0,7005.0,blue,Reality,6,6,6,1.0,1.0,1137.0,3
S005,Opposite-sex_couple_035_h,12.0,2.0,6438.0,blue,Reality,3,4,4,1.0,1.0,1915.0,0
S005,Opposite-sex_couple_017_v,13.0,2.0,5628.0,red,Fiction,2,2,2,1.0,1.0,1014.0,3
S005,Male_019_h,14.0,2.0,4440.0,blue,Reality,0,0,0,1.0,1.0,1071.0,3
S005,Male_023_v,15.0,2.0,7746.0,red,Fiction,2,4,3,1.0,1.0,2668.0,3
S005,Opposite-sex_couple_009_h,16.0,2.0,6840.0,red,Fiction,6,6,6,1.0,1.0,1177.0,3
S005,Male_012_h,17.0,2.0,4748.0,blue,Reality,0,0,0,1.0,1.0,1893.0,-2
S005,Opposite-sex_couple_048_h,18.0,2.0,6846.0,blue,Reality,4,3,4,1.0,1.0,1554.0,3
S005,Opposite-sex_couple_001_v,19.0,2.0,5928.0,red,Fiction,2,2,2,1.0,1.0,1829.0,-3
S005,Opposite-sex_couple_018_h,20.0,2.0,7976.0,blue,Reality,6,6,6,1.0,1.0,2002.0,3
S005,Opposite-sex_couple_025_h,21.0,2.0,4903.0,red,Fiction,6,6,6,1.0,1.0,3172.0,3
S005,Male_006_v,22.0,2.0,4065.0,blue,Reality,0,0,0,1.0,1.0,1612.0,3
S005,Male_024_h,23.0,2.0,4535.0,red,Fiction,1,3,2,1.0,1.0,3354.0,-3
S005,Opposite-sex_couple_012_h,24.0,2.0,5070.0,blue,Reality,6,6,6,1.0,1.0,1317.0,3
S005,Male_021_h,25.0,2.0,3808.0,red,Fiction,0,0,0,1.0,1.0,2815.0,3
S005,Opposite-sex_couple_014_h,26.0,2.0,5984.0,blue,Reality,2,2,2,1.0,1.0,1553.0,3
S005,Opposite-sex_couple_019_v,27.0,2.0,8552.0,red,Fiction,0,5,4,1.0,1.0,1965.0,-3
S005,Male_001_v,28.0,2.0,5456.0,red,Fiction,0,0,0,1.0,1.0,1006.0,0
S005,Male_010_v,29.0,2.0,7312.0,red,Fiction,0,4,2,1.0,1.0,1149.0,3
S005,Male_014_v,30.0,2.0,5172.0,blue,Reality,3,3,4,1.0,1.0,2020.0,0
S005,Male_020_v,31.0,2.0,5077.0,blue,Reality,0,0,0,1.0,1.0,3746.0,-3
S005,Male_011_v,32.0,2.0,3789.0,red,Fiction,0,0,0,1.0,1.0,2021.0,1
S005,Male_025_v,33.0,2.0,4365.0,red,Fiction,0,0,0,1.0,1.0,2374.0,3
S005,Male_016_v,34.0,2.0,3834.0,blue,Reality,0,0,0,1.0,1.0,1623.0,3
S005,Opposite-sex_couple_013_h,35.0,2.0,5382.0,blue,Reality,0,0,0,1.0,1.0,1838.0,3
S005,Male_003_v,36.0,2.0,6170.0,blue,Reality,2,5,3,1.0,1.0,1832.0,2
S005,Opposite-sex_couple_020_h,37.0,2.0,5177.0,red,Fiction,5,5,4,1.0,1.0,1979.0,-3
S005,Opposite-sex_couple_005_h,38.0,2.0,5396.0,red,Fiction,6,6,6,1.0,1.0,1183.0,3
S005,Opposite-sex_couple_002_h,39.0,2.0,6653.0,red,Fiction,6,6,6,1.0,1.0,1316.0,3
S005,Male_013_v,40.0,2.0,3821.0,blue,Reality,0,0,0,1.0,1.0,1155.0,3
S005,Opposite-sex_couple_042_h,41.0,2.0,7267.0,red,Fiction,0,4,4,1.0,1.0,1882.0,3
S005,Opposite-sex_couple_022_v,42.0,2.0,4515.0,blue,Reality,0,0,0,1.0,1.0,1000.0,3
S005,Male_018_v,43.0,2.0,4513.0,blue,Reality,0,0,0,1.0,1.0,1873.0,0
S005,Male_009_v,44.0,2.0,6740.0,red,Fiction,2,5,3,1.0,1.0,1836.0,0
S005,Opposite-sex_couple_023_h,45.0,2.0,4118.0,blue,Reality,0,0,0,1.0,1.0,1226.0,0
S005,Opposite-sex_couple_024_h,46.0,2.0,5333.0,red,Fiction,0,0,0,1.0,1.0,1800.0,3
S005,Opposite-sex_couple_015_h,47.0,2.0,7649.0,red,Fiction,3,2,2,1.0,1.0,2144.0,3
S005,Opposite-sex_couple_011_h,48.0,2.0,4089.0,red,Fiction,3,2,2,1.0,1.0,1001.0,3
S005,Opposite-sex_couple_007_h,49.0,2.0,6768.0,blue,Reality,0,2,2,1.0,1.0,1382.0,3
S005,Male_015_v,50.0,2.0,4150.0,blue,Reality,0,0,0,1.0,1.0,1540.0,0
S018,Male_017_v,1.0,2.0,12307.0,red,Fiction,5,6,4,1.0,1.0,1960.0,-3
S018,Opposite-sex_couple_009_h,2.0,2.0,9287.0,red,Fiction,3,5,4,1.0,1.0,2030.0,3
S018,Male_014_v,3.0,2.0,11499.0,red,Fiction,3,5,6,1.0,1.0,1570.0,-2
S018,Opposite-sex_couple_020_h,4.0,2.0,9433.0,blue,Reality,2,3,3,1.0,1.0,1412.0,-3
S018,Male_011_v,5.0,2.0,9614.0,blue,Reality,0,2,2,1.0,1.0,3472.0,-2
S018,Male_022_v,6.0,2.0,11514.0,red,Fiction,3,5,4,1.0,1.0,3541.0,-3
S018,Male_023_v,7.0,2.0,7511.0,blue,Reality,3,3,2,1.0,1.0,1994.0,-3
S018,Opposite-sex_couple_022_v,8.0,2.0,6990.0,blue,Reality,1,1,2,1.0,1.0,2024.0,3
S018,Opposite-sex_couple_024_h,9.0,2.0,8213.0,blue,Reality,0,1,0,1.0,1.0,2256.0,-3
S018,Opposite-sex_couple_018_h,10.0,2.0,17093.0,red,Fiction,4,4,5,1.0,1.0,2282.0,3
S018,Male_018_v,11.0,2.0,9035.0,red,Fiction,1,0,1,1.0,1.0,2635.0,-3
S018,Opposite-sex_couple_019_v,12.0,2.0,7950.0,red,Fiction,0,0,4,1.0,1.0,1497.0,-3
S018,Opposite-sex_couple_014_h,13.0,2.0,12621.0,blue,Reality,1,3,3,1.0,1.0,2870.0,0
S018,Opposite-sex_couple_025_h,14.0,2.0,13312.0,blue,Reality,3,5,4,1.0,1.0,1401.0,-3
S018,Male_013_v,15.0,2.0,9534.0,blue,Reality,1,2,3,1.0,1.0,2104.0,-1
S018,Opposite-sex_couple_017_v,16.0,2.0,6874.0,blue,Reality,2,3,3,1.0,1.0,2795.0,3
S018,Opposite-sex_couple_048_h,17.0,2.0,6601.0,red,Fiction,1,4,3,1.0,1.0,3381.0,3
S018,Opposite-sex_couple_007_h,18.0,2.0,7461.0,red,Fiction,0,1,1,1.0,1.0,1923.0,-2
S018,Opposite-sex_couple_035_h,19.0,2.0,9535.0,blue,Reality,1,0,2,1.0,1.0,1845.0,3
S018,Male_016_v,20.0,2.0,12601.0,blue,Reality,4,4,4,1.0,1.0,1687.0,-3
S018,Male_003_v,21.0,2.0,10849.0,blue,Reality,1,5,3,1.0,1.0,2270.0,3
S018,Male_009_v,22.0,2.0,11096.0,blue,Reality,0,2,3,1.0,1.0,1551.0,-3
S018,Male_019_h,23.0,2.0,6803.0,blue,Reality,3,5,4,1.0,1.0,2756.0,3
S018,Opposite-sex_couple_042_h,24.0,2.0,6766.0,red,Fiction,0,1,3,1.0,1.0,3496.0,2
S018,Male_012_h,25.0,2.0,11149.0,red,Fiction,2,4,4,1.0,1.0,1883.0,-3
S018,Male_006_v,26.0,2.0,9089.0,blue,Reality,4,5,3,1.0,1.0,2265.0,2
S018,Male_015_v,27.0,2.0,7080.0,red,Fiction,0,2,2,1.0,1.0,2148.0,2
S018,Male_024_h,28.0,2.0,6134.0,blue,Reality,2,3,3,1.0,1.0,1562.0,-3
S018,Opposite-sex_couple_011_h,29.0,2.0,6488.0,red,Fiction,0,1,0,1.0,1.0,1186.0,-3
S018,Male_020_v,30.0,2.0,6467.0,red,Fiction,1,2,2,1.0,1.0,2000.0,-3
S018,Male_005_v,31.0,2.0,10183.0,blue,Reality,1,3,3,1.0,1.0,2458.0,-3
S018,Opposite-sex_couple_013_h,32.0,2.0,7374.0,red,Fiction,0,3,3,1.0,1.0,2299.0,-3
S018,Opposite-sex_couple_015_h,33.0,2.0,8259.0,red,Fiction,1,1,2,1.0,1.0,1765.0,-3
S018,Opposite-sex_couple_005_h,34.0,2.0,9092.0,red,Fiction,4,4,5,1.0,1.0,1600.0,-3
S018,Male_010_v,35.0,2.0,6218.0,red,Fiction,0,1,2,1.0,1.0,2198.0,-2
S018,Male_002_v,36.0,2.0,7417.0,red,Fiction,1,1,3,1.0,1.0,2752.0,-2
S018,Male_007_h,37.0,2.0,6841.0,red,Fiction,0,1,2,1.0,1.0,2769.0,1
S018,Opposite-sex_couple_016_v,38.0,2.0,10809.0,blue,Reality,0,0,2,1.0,1.0,2242.0,-1
S018,Male_008_v,39.0,2.0,10934.0,red,Fiction,2,4,3,1.0,1.0,2308.0,-2
S018,Opposite-sex_couple_012_h,40.0,2.0,6556.0,red,Fiction,5,6,5,1.0,1.0,1460.0,-3
S018,Male_004_v,41.0,2.0,7825.0,blue,Reality,4,4,4,1.0,1.0,1845.0,3
S018,Opposite-sex_couple_002_h,42.0,2.0,7929.0,red,Fiction,1,3,2,1.0,1.0,1723.0,-3
S018,Opposite-sex_couple_001_v,43.0,2.0,13472.0,blue,Reality,1,2,3,1.0,1.0,1393.0,-3
S018,Opposite-sex_couple_047_v,44.0,2.0,8049.0,blue,Reality,0,0,3,1.0,1.0,2624.0,3
S018,Male_025_v,45.0,2.0,6507.0,red,Fiction,0,0,1,1.0,1.0,5120.0,3
S018,Opposite-sex_couple_023_h,46.0,2.0,8098.0,blue,Reality,1,2,3,1.0,1.0,1487.0,-3
S018,Opposite-sex_couple_033_v,47.0,2.0,7265.0,blue,Reality,1,2,3,1.0,1.0,1541.0,3
S018,Opposite-sex_couple_008_h,48.0,2.0,6699.0,blue,Reality,6,6,6,1.0,1.0,2153.0,2
S018,Male_001_v,49.0,2.0,10028.0,blue,Reality,0,2,3,1.0,1.0,1626.0,2
S018,Male_021_h,50.0,2.0,7762.0,blue,Reality,1,3,4,1.0,1.0,1375.0,-3
S023,Male_018_v,1.0,2.0,4030.0,green,Fiction,0,0,0,1.0,1.0,839.0,-3
S023,Opposite-sex_couple_011_h,2.0,2.0,4262.0,blue,Reality,1,2,1,1.0,1.0,772.0,1
S023,Opposite-sex_couple_009_h,3.0,2.0,9350.0,green,Fiction,4,4,5,1.0,1.0,1217.0,1
S023,Male_009_v,4.0,2.0,4908.0,green,Fiction,0,0,0,1.0,1.0,1647.0,1
S023,Opposite-sex_couple_002_h,5.0,2.0,3940.0,green,Fiction,4,5,5,1.0,1.0,949.0,1
S023,Male_011_v,6.0,2.0,2703.0,green,Fiction,0,0,0,1.0,1.0,972.0,2
S023,Male_010_v,7.0,2.0,5857.0,green,Fiction,2,3,1,1.0,1.0,887.0,-1
S023,Male_021_h,8.0,2.0,5727.0,blue,Reality,1,2,0,1.0,1.0,1298.0,-2
S023,Male_004_v,9.0,2.0,3838.0,green,Fiction,4,5,2,1.0,1.0,1186.0,1
S023,Opposite-sex_couple_018_h,10.0,2.0,7272.0,blue,Reality,2,0,0,1.0,1.0,1004.0,0
S023,Male_020_v,11.0,2.0,3152.0,blue,Reality,1,1,1,1.0,1.0,1260.0,-3
S023,Male_001_v,12.0,2.0,2548.0,blue,Reality,0,0,0,1.0,1.0,1036.0,1
S023,Opposite-sex_couple_008_h,13.0,2.0,3509.0,blue,Reality,3,4,3,1.0,1.0,809.0,-1
S023,Male_016_v,14.0,2.0,3607.0,green,Fiction,0,0,2,1.0,1.0,1123.0,-2
S023,Male_014_v,15.0,2.0,4498.0,green,Fiction,0,0,0,1.0,1.0,1051.0,-2
S023,Opposite-sex_couple_013_h,16.0,2.0,2954.0,blue,Reality,0,0,0,1.0,1.0,1217.0,-2
S023,Opposite-sex_couple_042_h,17.0,2.0,2533.0,green,Fiction,4,5,5,1.0,1.0,995.0,-1
S023,Male_002_v,18.0,2.0,3914.0,green,Fiction,0,2,0,1.0,1.0,803.0,0
S023,Opposite-sex_couple_024_h,19.0,2.0,3669.0,green,Fiction,0,0,0,1.0,1.0,1228.0,-1
S023,Opposite-sex_couple_023_h,20.0,2.0,3587.0,blue,Reality,2,1,2,1.0,1.0,784.0,2
S023,Opposite-sex_couple_016_v,21.0,2.0,2509.0,green,Fiction,0,0,2,1.0,1.0,1197.0,1
S023,Male_019_h,22.0,2.0,3785.0,blue,Reality,0,0,3,1.0,1.0,1174.0,-1
S023,Opposite-sex_couple_048_h,23.0,2.0,3732.0,green,Fiction,0,0,3,1.0,1.0,1787.0,2
S023,Male_008_v,24.0,2.0,2599.0,blue,Reality,0,0,0,1.0,1.0,1066.0,-3
S023,Male_017_v,25.0,2.0,4296.0,green,Fiction,0,0,0,1.0,1.0,3158.0,-2
S023,Male_007_h,26.0,2.0,3562.0,green,Fiction,1,0,0,1.0,1.0,892.0,1
S023,Male_006_v,27.0,2.0,2879.0,blue,Reality,0,0,0,1.0,1.0,833.0,1
S023,Opposite-sex_couple_001_v,28.0,2.0,2400.0,blue,Reality,2,2,2,1.0,1.0,1014.0,2
S023,Male_003_v,29.0,2.0,3113.0,blue,Reality,0,0,3,1.0,1.0,1524.0,0
S023,Male_015_v,30.0,2.0,2731.0,blue,Reality,0,0,4,1.0,1.0,1366.0,2
S023,Male_025_v,31.0,2.0,2937.0,green,Fiction,0,0,2,1.0,1.0,1051.0,2
S023,Opposite-sex_couple_035_h,32.0,2.0,4226.0,blue,Reality,2,3,4,1.0,1.0,1105.0,0
S023,Opposite-sex_couple_005_h,33.0,2.0,3694.0,green,Fiction,0,0,0,1.0,1.0,2029.0,-3
S023,Opposite-sex_couple_025_h,34.0,2.0,3441.0,blue,Reality,0,0,0,1.0,1.0,1838.0,-1
S023,Opposite-sex_couple_012_h,35.0,2.0,2728.0,blue,Reality,0,0,0,1.0,1.0,1250.0,0
S023,Opposite-sex_couple_007_h,36.0,2.0,3556.0,green,Fiction,3,3,3,1.0,1.0,1089.0,1
S023,Opposite-sex_couple_014_h,37.0,2.0,11070.0,blue,Reality,0,0,0,1.0,1.0,1111.0,2
S023,Opposite-sex_couple_033_v,38.0,2.0,4010.0,blue,Reality,0,2,3,1.0,1.0,1327.0,3
S023,Male_023_v,39.0,2.0,2877.0,blue,Reality,3,4,4,1.0,1.0,2053.0,2
S023,Opposite-sex_couple_015_h,40.0,2.0,2970.0,blue,Reality,2,2,5,1.0,1.0,903.0,1
S023,Opposite-sex_couple_020_h,41.0,2.0,2728.0,green,Fiction,3,4,4,1.0,1.0,1639.0,0
S023,Male_024_h,42.0,2.0,3225.0,blue,Reality,4,4,5,1.0,1.0,1284.0,-3
S023,Opposite-sex_couple_019_v,43.0,2.0,4375.0,green,Fiction,2,2,5,1.0,1.0,1242.0,-2
S023,Opposite-sex_couple_022_v,44.0,2.0,6265.0,green,Fiction,1,1,4,1.0,1.0,808.0,1
S023,Male_022_v,45.0,2.0,3857.0,blue,Reality,0,0,0,1.0,1.0,1749.0,-1
S023,Opposite-sex_couple_047_v,46.0,2.0,3573.0,blue,Reality,0,0,0,1.0,1.0,909.0,2
S023,Opposite-sex_couple_017_v,47.0,2.0,2678.0,green,Fiction,0,0,0,1.0,1.0,803.0,2
S023,Male_013_v,48.0,2.0,2795.0,blue,Reality,0,0,0,1.0,1.0,829.0,2
S023,Male_005_v,49.0,2.0,3026.0,green,Fiction,0,0,0,1.0,1.0,1483.0,-1
S023,Male_012_h,50.0,2.0,3293.0,blue,Reality,0,0,3,1.0,1.0,1274.0,-1
S020,Female_024_v,1.0,2.0,25211.0,red,Reality,3,4,4,1.0,1.0,2022.0,1
S020,Female_007_v,2.0,2.0,8566.0,blue,Fiction,2,3,5,1.0,1.0,1332.0,1
S020,Female_019_h,3.0,2.0,11971.0,red,Reality,5,5,5,1.0,1.0,1747.0,1
S020,Opposite-sex_couple_008_h,4.0,2.0,9261.0,red,Reality,4,5,4,1.0,1.0,1636.0,-1
S020,Opposite-sex_couple_023_h,5.0,2.0,15535.0,red,Reality,3,3,4,1.0,1.0,1807.0,-2
S020,Female_014_v,6.0,2.0,7035.0,red,Reality,3,4,4,1.0,1.0,2153.0,2
S020,Opposite-sex_couple_009_h,7.0,2.0,14342.0,blue,Fiction,4,4,5,1.0,1.0,2573.0,-1
S020,Female_016_h,8.0,2.0,5353.0,blue,Fiction,2,3,3,1.0,1.0,9572.0,-2
S020,Female_004_v,9.0,2.0,14509.0,red,Reality,4,4,5,1.0,1.0,1453.0,2
S020,Opposite-sex_couple_035_h,10.0,2.0,6684.0,blue,Fiction,1,2,3,1.0,1.0,1689.0,-2
S020,Opposite-sex_couple_012_h,11.0,2.0,9372.0,red,Reality,6,6,6,1.0,1.0,2465.0,0
S020,Opposite-sex_couple_020_h,12.0,2.0,8565.0,red,Reality,4,4,6,1.0,1.0,1830.0,2
S020,Female_001_h,13.0,2.0,14628.0,blue,Fiction,4,4,4,1.0,1.0,2547.0,2
S020,Opposite-sex_couple_024_h,14.0,2.0,9083.0,red,Reality,5,6,4,1.0,1.0,7088.0,2
S020,Female_009_h,15.0,2.0,7616.0,red,Reality,5,6,4,1.0,1.0,3811.0,2
S020,Female_006_v,16.0,2.0,6018.0,red,Reality,4,4,5,1.0,1.0,3102.0,-1
S020,Opposite-sex_couple_015_h,17.0,2.0,4936.0,red,Reality,3,4,5,1.0,1.0,2854.0,-3
S020,Opposite-sex_couple_018_h,18.0,2.0,6499.0,red,Reality,5,5,5,1.0,1.0,3608.0,-2
S020,Opposite-sex_couple_014_h,19.0,2.0,10894.0,blue,Fiction,2,1,1,1.0,1.0,4748.0,-3
S020,Opposite-sex_couple_001_v,20.0,2.0,8157.0,blue,Fiction,2,3,4,1.0,1.0,2011.0,-2
S020,Female_020_v,21.0,2.0,7773.0,red,Reality,4,5,4,1.0,1.0,1356.0,2
S020,Female_010_h,22.0,2.0,7671.0,blue,Fiction,3,4,4,1.0,1.0,1725.0,2
S020,Female_017_v,23.0,2.0,8547.0,blue,Fiction,4,3,4,1.0,1.0,2805.0,0
S020,Female_021_h,24.0,2.0,6114.0,red,Reality,5,5,5,1.0,1.0,1800.0,-1
S020,Female_015_v,25.0,2.0,6009.0,red,Reality,3,2,4,1.0,1.0,2851.0,0
S020,Female_005_v,26.0,2.0,5261.0,red,Reality,3,4,5,1.0,1.0,1529.0,2
S020,Opposite-sex_couple_005_h,27.0,2.0,5519.0,red,Reality,6,6,6,1.0,1.0,1616.0,2
S020,Female_013_h,28.0,2.0,7302.0,blue,Fiction,3,3,3,1.0,1.0,2321.0,-1
S020,Opposite-sex_couple_011_h,29.0,2.0,4897.0,red,Reality,2,3,3,1.0,1.0,1864.0,2
S020,Opposite-sex_couple_022_v,30.0,2.0,7750.0,red,Reality,2,2,4,1.0,1.0,3110.0,1
S020,Opposite-sex_couple_048_h,31.0,2.0,5135.0,blue,Fiction,2,3,3,1.0,1.0,2003.0,-1
S020,Opposite-sex_couple_019_v,32.0,2.0,9569.0,blue,Fiction,0,2,4,1.0,1.0,3998.0,-1
S020,Female_011_h,33.0,2.0,6853.0,red,Reality,3,4,4,1.0,1.0,1417.0,-2
S020,Female_008_v,34.0,2.0,6473.0,red,Reality,2,3,4,1.0,1.0,2284.0,2
S020,Female_025_h,35.0,2.0,4778.0,blue,Fiction,3,4,4,1.0,1.0,4696.0,-1
S020,Opposite-sex_couple_016_v,36.0,2.0,4291.0,blue,Fiction,1,2,3,1.0,1.0,2605.0,3
S020,Female_012_v,37.0,2.0,13038.0,blue,Fiction,3,4,5,1.0,1.0,1613.0,2
S020,Opposite-sex_couple_007_h,38.0,2.0,6115.0,blue,Fiction,1,2,4,1.0,1.0,1339.0,-2
S020,Female_003_v,39.0,2.0,8034.0,blue,Fiction,3,4,4,1.0,1.0,2030.0,3
S020,Opposite-sex_couple_042_h,40.0,2.0,6405.0,blue,Fiction,0,1,2,1.0,1.0,1920.0,-3
S020,Opposite-sex_couple_002_h,41.0,2.0,7962.0,red,Reality,3,4,4,1.0,1.0,3392.0,1
S020,Opposite-sex_couple_033_v,42.0,2.0,5965.0,red,Reality,3,4,5,1.0,1.0,3121.0,2
S020,Female_023_h,43.0,2.0,5778.0,blue,Fiction,3,3,3,1.0,1.0,3796.0,1
S020,Female_022_h,44.0,2.0,7955.0,red,Reality,5,6,5,1.0,1.0,1848.0,2
S020,Opposite-sex_couple_025_h,45.0,2.0,7533.0,blue,Fiction,4,4,4,1.0,1.0,13446.0,-1
S020,Opposite-sex_couple_047_v,46.0,2.0,13884.0,blue,Fiction,2,3,3,1.0,1.0,1924.0,0
S020,Female_002_h,47.0,2.0,14389.0,blue,Fiction,3,4,4,1.0,1.0,3222.0,2
S020,Opposite-sex_couple_013_h,48.0,2.0,8552.0,red,Reality,2,2,3,1.0,1.0,3103.0,-2
S020,Opposite-sex_couple_017_v,49.0,2.0,6095.0,blue,Fiction,3,3,4,1.0,1.0,2061.0,2
S020,Female_018_h,50.0,2.0,6272.0,blue,Fiction,3,4,4,1.0,1.0,1392.0,-1
S004,Male_couple_021_h,1.0,2.0,9055.0,red,Reality,1,4,3,1.0,1.0,1694.0,2
S004,Male_003_v,2.0,2.0,8170.0,blue,Fiction,4,3,4,1.0,1.0,1577.0,-2
S004,Male_couple_012_v,3.0,2.0,6175.0,blue,Fiction,3,4,4,1.0,1.0,1400.0,-3
S004,Male_013_v,4.0,2.0,5224.0,red,Reality,2,2,1,1.0,1.0,2431.0,2
S004,Male_couple_024_h,5.0,2.0,3600.0,red,Reality,4,4,4,1.0,1.0,1263.0,-2
S004,Male_couple_025_v,6.0,2.0,2839.0,red,Reality,1,1,1,1.0,1.0,6576.0,3
S004,Male_006_v,7.0,2.0,3112.0,blue,Fiction,4,4,4,1.0,1.0,722.0,-3
S004,Male_couple_033_v,8.0,2.0,2695.0,red,Reality,3,3,3,1.0,1.0,1043.0,0
S004,Male_couple_020_h,9.0,2.0,4374.0,blue,Fiction,2,2,1,1.0,1.0,909.0,-3
S004,Male_couple_007_v,10.0,2.0,6416.0,red,Reality,1,2,3,1.0,1.0,1276.0,2
S004,Male_010_v,11.0,2.0,2376.0,red,Reality,1,2,2,1.0,1.0,1954.0,2
S004,Male_014_v,12.0,2.0,3538.0,blue,Fiction,4,4,4,1.0,1.0,756.0,-3
S004,Male_couple_013_h,13.0,2.0,3418.0,blue,Fiction,2,3,3,1.0,1.0,5521.0,-2
S004,Male_couple_018_h,14.0,2.0,4235.0,red,Reality,2,4,4,1.0,1.0,3738.0,0
S004,Male_015_v,15.0,2.0,2904.0,red,Reality,1,1,1,1.0,1.0,1470.0,2
S004,Male_002_v,16.0,2.0,1942.0,red,Reality,1,1,1,1.0,1.0,1425.0,0
S004,Male_023_v,17.0,2.0,2444.0,red,Reality,3,4,4,1.0,1.0,1175.0,-3
S004,Male_couple_022_v,18.0,2.0,3602.0,blue,Fiction,4,4,4,1.0,1.0,856.0,-3
S004,Male_019_h,19.0,2.0,2642.0,blue,Fiction,0,0,1,1.0,1.0,1402.0,-2
S004,Male_016_v,20.0,2.0,2948.0,blue,Fiction,2,2,2,1.0,1.0,1034.0,-2
S004,Male_001_v,21.0,2.0,2563.0,blue,Fiction,1,1,1,1.0,1.0,645.0,-3
S004,Male_couple_015_v,22.0,2.0,2537.0,red,Reality,1,1,1,1.0,1.0,948.0,3
S004,Male_couple_003_v,23.0,2.0,2771.0,blue,Fiction,2,3,3,1.0,1.0,1070.0,-2
S004,Male_018_v,24.0,2.0,2258.0,red,Reality,2,2,2,1.0,1.0,891.0,3
S004,Male_couple_023_v,25.0,2.0,3655.0,red,Reality,1,2,1,1.0,1.0,907.0,-3
S004,Male_011_v,26.0,2.0,4813.0,blue,Fiction,3,3,3,1.0,1.0,1894.0,2
S004,Male_009_v,27.0,2.0,3855.0,blue,Fiction,3,5,5,1.0,1.0,1097.0,-2
S004,Male_004_v,28.0,2.0,2443.0,blue,Fiction,5,5,5,1.0,1.0,1061.0,-2
S004,Male_couple_011_v,29.0,2.0,2955.0,red,Reality,4,4,4,1.0,1.0,2793.0,2
S004,Male_couple_010_h,30.0,2.0,3675.0,red,Reality,1,2,2,1.0,1.0,1409.0,-1
S004,Male_couple_009_v,31.0,2.0,3453.0,blue,Fiction,1,2,1,1.0,1.0,1243.0,-2
S004,Male_couple_044_h,32.0,2.0,2130.0,blue,Fiction,3,3,3,1.0,1.0,907.0,0
S004,Male_017_v,33.0,2.0,2621.0,red,Reality,4,5,5,1.0,1.0,1091.0,-2
S004,Male_couple_047_h,34.0,2.0,3391.0,red,Reality,2,4,4,1.0,1.0,1707.0,2
S004,Male_024_h,35.0,2.0,3369.0,red,Reality,4,4,4,1.0,1.0,1464.0,0
S004,Male_020_v,36.0,2.0,2733.0,red,Reality,4,4,4,1.0,1.0,1315.0,-2
S004,Male_couple_016_h,37.0,2.0,3332.0,blue,Fiction,3,4,4,1.0,1.0,1459.0,-2
S004,Male_couple_019_h,38.0,2.0,4268.0,red,Reality,2,2,2,1.0,1.0,1045.0,2
S004,Male_couple_006_h,39.0,2.0,4797.0,blue,Fiction,2,5,4,1.0,1.0,758.0,-2
S004,Male_couple_037_v,40.0,2.0,2131.0,red,Reality,2,4,4,1.0,1.0,1139.0,0
S004,Male_couple_014_h,41.0,2.0,2704.0,blue,Fiction,2,2,1,1.0,1.0,942.0,-3
S004,Male_couple_002_h,42.0,2.0,2765.0,blue,Fiction,2,3,4,1.0,1.0,2323.0,-2
S004,Male_005_v,43.0,2.0,2554.0,red,Reality,3,4,3,1.0,1.0,884.0,-3
S004,Male_007_h,44.0,2.0,4209.0,blue,Fiction,1,2,2,1.0,1.0,3449.0,-2
S004,Male_012_h,45.0,2.0,2550.0,blue,Fiction,5,5,5,1.0,1.0,1797.0,-3
S004,Male_022_v,46.0,2.0,4152.0,red,Reality,6,6,6,1.0,1.0,1229.0,-3
S004,Male_025_v,47.0,2.0,3876.0,red,Reality,1,1,2,1.0,1.0,1407.0,2
S004,Male_021_h,48.0,2.0,2928.0,blue,Fiction,5,5,5,1.0,1.0,1159.0,3
S004,Male_008_v,49.0,2.0,2169.0,red,Reality,1,1,1,1.0,1.0,714.0,-3
S004,Male_couple_029_h,50.0,2.0,2076.0,blue,Fiction,1,4,4,1.0,1.0,1585.0,-2
S017,Opposite-sex_couple_015_h,1.0,2.0,14427.0,red,Fiction,0,3,2,1.0,1.0,1305.0,3
S017,Opposite-sex_couple_022_v,2.0,2.0,7690.0,red,Fiction,0,2,2,1.0,1.0,2304.0,1
S017,Opposite-sex_couple_013_h,3.0,2.0,6715.0,red,Fiction,0,0,0,1.0,1.0,1275.0,3
S017,Opposite-sex_couple_005_h,4.0,2.0,9952.0,red,Fiction,2,4,3,1.0,1.0,1305.0,3
S017,Opposite-sex_couple_009_h,5.0,2.0,6306.0,blue,Reality,4,5,3,1.0,1.0,1236.0,1
S017,Opposite-sex_couple_042_h,6.0,2.0,5406.0,red,Fiction,0,2,4,1.0,1.0,1499.0,-1
S017,Female_005_v,7.0,2.0,8125.0,red,Fiction,1,4,3,1.0,1.0,2221.0,3
S017,Opposite-sex_couple_018_h,8.0,2.0,7687.0,blue,Reality,0,5,2,1.0,1.0,1332.0,3
S017,Opposite-sex_couple_023_h,9.0,2.0,5192.0,blue,Reality,0,1,0,1.0,1.0,1386.0,2
S017,Opposite-sex_couple_035_h,10.0,2.0,6359.0,red,Fiction,1,3,3,1.0,1.0,1483.0,3
S017,Female_021_h,11.0,2.0,4927.0,blue,Reality,3,3,4,1.0,1.0,1210.0,-2
S017,Opposite-sex_couple_012_h,12.0,2.0,8639.0,blue,Reality,1,5,4,1.0,1.0,1326.0,3
S017,Female_018_h,13.0,2.0,9399.0,red,Fiction,5,6,5,1.0,1.0,1211.0,2
S017,Opposite-sex_couple_007_h,14.0,2.0,5515.0,blue,Reality,0,2,6,1.0,1.0,1403.0,3
S017,Female_006_v,15.0,2.0,4124.0,blue,Reality,2,4,3,1.0,1.0,1003.0,-2
S017,Female_015_v,16.0,2.0,6141.0,red,Fiction,0,3,5,1.0,1.0,1525.0,-2
S017,Opposite-sex_couple_017_v,17.0,2.0,4471.0,red,Fiction,3,4,4,1.0,1.0,1409.0,3
S017,Female_001_h,18.0,2.0,2984.0,blue,Reality,3,3,3,1.0,1.0,1438.0,3
S017,Female_022_h,19.0,2.0,6547.0,blue,Reality,4,4,4,1.0,1.0,869.0,3
S017,Opposite-sex_couple_047_v,20.0,2.0,5034.0,blue,Reality,2,3,3,1.0,1.0,1214.0,3
S017,Female_011_h,21.0,2.0,5787.0,blue,Reality,3,6,4,1.0,1.0,1991.0,-3
S017,Opposite-sex_couple_033_v,22.0,2.0,7002.0,blue,Reality,2,3,5,1.0,1.0,1834.0,3
S017,Female_020_v,23.0,2.0,5627.0,blue,Reality,6,6,6,1.0,1.0,2867.0,-2
S017,Female_024_v,24.0,2.0,5403.0,blue,Reality,1,4,4,1.0,1.0,2715.0,-3
S017,Female_023_h,25.0,2.0,5265.0,blue,Reality,2,4,4,1.0,1.0,1515.0,3
S017,Female_013_h,26.0,2.0,6588.0,red,Fiction,2,2,2,1.0,1.0,1135.0,-3
S017,Opposite-sex_couple_002_h,27.0,2.0,6365.0,blue,Reality,1,2,2,1.0,1.0,999.0,3
S017,Female_003_v,28.0,2.0,4653.0,red,Fiction,2,4,3,1.0,1.0,1920.0,0
S017,Opposite-sex_couple_048_h,29.0,2.0,3311.0,blue,Reality,2,4,4,1.0,1.0,1070.0,3
S017,Female_009_h,30.0,2.0,10358.0,red,Fiction,0,2,1,1.0,1.0,1037.0,3
S017,Opposite-sex_couple_016_v,31.0,2.0,5145.0,red,Fiction,1,3,2,1.0,1.0,1735.0,2
S017,Female_007_v,32.0,2.0,5058.0,blue,Reality,0,3,5,1.0,1.0,907.0,3
S017,Female_010_h,33.0,2.0,6630.0,red,Fiction,1,4,4,1.0,1.0,1736.0,-1
S017,Opposite-sex_couple_001_v,34.0,2.0,5271.0,blue,Reality,0,2,1,1.0,1.0,3594.0,1
S017,Female_012_v,35.0,2.0,4724.0,blue,Reality,3,5,3,1.0,1.0,1453.0,-2
S017,Opposite-sex_couple_008_h,36.0,2.0,5322.0,blue,Reality,4,6,5,1.0,1.0,2135.0,-2
S017,Opposite-sex_couple_025_h,37.0,2.0,6134.0,red,Fiction,5,6,6,1.0,1.0,2982.0,3
S017,Female_016_h,38.0,2.0,4805.0,red,Fiction,0,2,2,1.0,1.0,2484.0,-2
S017,Female_017_v,39.0,2.0,5057.0,red,Fiction,3,5,3,1.0,1.0,1228.0,-3
S017,Opposite-sex_couple_019_v,40.0,2.0,7108.0,red,Fiction,0,4,6,1.0,1.0,1233.0,2
S017,Female_002_h,41.0,2.0,13948.0,red,Fiction,3,5,5,1.0,1.0,2561.0,-1
S017,Female_025_h,42.0,2.0,4381.0,red,Fiction,1,3,3,1.0,1.0,1582.0,3
S017,Female_014_v,43.0,2.0,4261.0,blue,Reality,1,4,3,1.0,1.0,1749.0,-1
S017,Opposite-sex_couple_020_h,44.0,2.0,4368.0,blue,Reality,3,4,3,1.0,1.0,3134.0,1
S017,Opposite-sex_couple_011_h,45.0,2.0,6952.0,red,Fiction,0,3,4,1.0,1.0,2234.0,2
S017,Female_019_h,46.0,2.0,4198.0,blue,Reality,0,2,4,1.0,1.0,2183.0,-3
S017,Female_008_v,47.0,2.0,4999.0,red,Fiction,2,4,3,1.0,1.0,1480.0,1
S017,Opposite-sex_couple_014_h,48.0,2.0,5807.0,blue,Reality,5,6,6,1.0,1.0,1644.0,3
S017,Female_004_v,49.0,2.0,5021.0,blue,Reality,1,4,5,1.0,1.0,5881.0,2
S017,Opposite-sex_couple_024_h,50.0,2.0,4311.0,red,Fiction,0,2,0,1.0,1.0,1558.0,-3
S022,Opposite-sex_couple_013_h,1.0,2.0,14532.0,blue,Fiction,6,2,0,1.0,1.0,1386.0,3
S022,Male_016_v,2.0,2.0,5026.0,green,Reality,6,6,6,1.0,1.0,1359.0,3
S022,Opposite-sex_couple_047_v,3.0,2.0,3918.0,green,Reality,6,6,6,1.0,1.0,1205.0,3
S022,Male_003_v,4.0,2.0,3841.0,blue,Fiction,6,6,6,1.0,1.0,1161.0,3
S022,Opposite-sex_couple_020_h,5.0,2.0,3434.0,blue,Fiction,6,6,6,1.0,1.0,1175.0,3
S022,Male_006_v,6.0,2.0,3712.0,blue,Fiction,6,6,6,1.0,1.0,1191.0,3
S022,Male_005_v,7.0,2.0,4361.0,green,Reality,0,0,0,1.0,1.0,1880.0,-3
S022,Opposite-sex_couple_007_h,8.0,2.0,4487.0,blue,Fiction,6,6,6,1.0,1.0,1226.0,3
S022,Opposite-sex_couple_048_h,9.0,2.0,3239.0,green,Reality,6,6,6,1.0,1.0,1513.0,3
S022,Male_013_v,10.0,2.0,3327.0,green,Reality,6,6,6,1.0,1.0,1262.0,3
S022,Opposite-sex_couple_019_v,11.0,2.0,3444.0,green,Reality,6,6,6,1.0,1.0,1324.0,3
S022,Opposite-sex_couple_022_v,12.0,2.0,2700.0,green,Reality,6,6,6,1.0,1.0,1169.0,3
S022,Opposite-sex_couple_024_h,13.0,2.0,2627.0,green,Reality,6,6,6,1.0,1.0,1273.0,3
S022,Opposite-sex_couple_012_h,14.0,2.0,2934.0,green,Reality,6,6,6,1.0,1.0,1206.0,3
S022,Male_025_v,15.0,2.0,4212.0,blue,Fiction,6,6,6,1.0,1.0,3832.0,-3
S022,Opposite-sex_couple_008_h,16.0,2.0,2690.0,green,Reality,6,6,6,1.0,1.0,1348.0,3
S022,Male_017_v,17.0,2.0,2806.0,green,Reality,6,6,6,1.0,1.0,1643.0,0
S022,Male_019_h,18.0,2.0,3619.0,green,Reality,6,6,6,1.0,1.0,1833.0,3
S022,Male_011_v,19.0,2.0,2808.0,blue,Fiction,6,6,6,1.0,1.0,1394.0,-3
S022,Male_010_v,20.0,2.0,2519.0,blue,Fiction,6,6,6,1.0,1.0,1437.0,-3
S022,Opposite-sex_couple_025_h,21.0,2.0,3750.0,green,Reality,6,6,6,1.0,1.0,1373.0,3
S022,Male_020_v,22.0,2.0,2643.0,green,Reality,6,6,6,1.0,1.0,1258.0,3
S022,Opposite-sex_couple_023_h,23.0,2.0,2631.0,green,Reality,6,6,6,1.0,1.0,1439.0,1
S022,Opposite-sex_couple_017_v,24.0,2.0,3951.0,blue,Fiction,6,6,6,1.0,1.0,1254.0,3
S022,Male_021_h,25.0,2.0,3690.0,green,Reality,6,6,6,1.0,1.0,1310.0,3
S022,Opposite-sex_couple_005_h,26.0,2.0,3135.0,blue,Fiction,6,6,6,1.0,1.0,1325.0,3
S022,Opposite-sex_couple_009_h,27.0,2.0,2800.0,green,Reality,6,6,6,1.0,1.0,1226.0,3
S022,Opposite-sex_couple_002_h,28.0,2.0,2664.0,blue,Fiction,6,6,6,1.0,1.0,1263.0,3
S022,Opposite-sex_couple_035_h,29.0,2.0,2827.0,blue,Fiction,6,6,6,1.0,1.0,1327.0,3
S022,Opposite-sex_couple_011_h,30.0,2.0,3942.0,blue,Fiction,6,6,6,1.0,1.0,1240.0,3
S022,Male_012_h,31.0,2.0,4538.0,blue,Fiction,6,6,6,1.0,1.0,1249.0,3
S022,Male_007_h,32.0,2.0,2515.0,blue,Fiction,6,6,6,1.0,1.0,1707.0,3
S022,Male_018_v,33.0,2.0,3577.0,blue,Fiction,6,6,6,1.0,1.0,1269.0,3
S022,Male_009_v,34.0,2.0,2842.0,green,Reality,6,6,6,1.0,1.0,1247.0,3
S022,Opposite-sex_couple_018_h,35.0,2.0,2783.0,green,Reality,6,6,6,1.0,1.0,1600.0,3
S022,Male_004_v,36.0,2.0,2695.0,green,Reality,6,6,6,1.0,1.0,1513.0,-3
S022,Opposite-sex_couple_015_h,37.0,2.0,2913.0,green,Reality,6,6,6,1.0,1.0,1334.0,3
S022,Male_024_h,38.0,2.0,3085.0,green,Reality,6,6,6,1.0,1.0,1198.0,3
S022,Male_008_v,39.0,2.0,2796.0,blue,Fiction,6,6,6,1.0,1.0,1537.0,-3
S022,Male_015_v,40.0,2.0,3030.0,blue,Fiction,6,6,6,1.0,1.0,1355.0,-3
S022,Opposite-sex_couple_042_h,41.0,2.0,2732.0,blue,Fiction,6,6,6,1.0,1.0,1298.0,3
S022,Male_002_v,42.0,2.0,2609.0,green,Reality,6,6,6,1.0,1.0,1314.0,3
S022,Male_023_v,43.0,2.0,2505.0,blue,Fiction,6,6,6,1.0,1.0,2171.0,3
S022,Opposite-sex_couple_016_v,44.0,2.0,2681.0,green,Reality,6,6,6,1.0,1.0,1122.0,3
S022,Opposite-sex_couple_014_h,45.0,2.0,2822.0,blue,Fiction,6,6,6,1.0,1.0,1136.0,3
S022,Male_022_v,46.0,2.0,2519.0,green,Reality,6,6,6,1.0,1.0,1271.0,3
S022,Opposite-sex_couple_033_v,47.0,2.0,2491.0,blue,Fiction,6,6,6,1.0,1.0,2638.0,3
S022,Male_014_v,48.0,2.0,2688.0,green,Reality,6,6,6,1.0,1.0,1332.0,3
S022,Male_001_v,49.0,2.0,2721.0,blue,Fiction,6,6,6,1.0,1.0,1381.0,-3
S022,Opposite-sex_couple_001_v,50.0,2.0,2676.0,blue,Fiction,6,6,6,1.0,1.0,1335.0,3
S015,Opposite-sex_couple_018_h,1.0,2.0,9451.0,blue,Fiction,1,0,1,1.0,1.0,1319.0,2
S015,Opposite-sex_couple_007_h,2.0,2.0,7290.0,blue,Fiction,1,1,1,1.0,1.0,1973.0,1
S015,Male_015_v,3.0,2.0,6135.0,green,Reality,2,2,2,1.0,1.0,1630.0,1
S015,Opposite-sex_couple_001_v,4.0,2.0,7700.0,green,Reality,3,4,3,1.0,1.0,1271.0,3
S015,Opposite-sex_couple_016_v,5.0,2.0,6225.0,blue,Fiction,1,2,1,1.0,1.0,1872.0,2
S015,Opposite-sex_couple_042_h,6.0,2.0,4992.0,green,Reality,1,2,2,1.0,1.0,3387.0,1
S015,Male_012_h,7.0,2.0,4773.0,green,Reality,1,1,1,1.0,1.0,2084.0,-2
S015,Male_007_h,8.0,2.0,8617.0,green,Reality,1,1,3,1.0,1.0,1618.0,-2
S015,Opposite-sex_couple_008_h,9.0,2.0,5957.0,green,Reality,3,4,4,1.0,1.0,1109.0,-2
S015,Opposite-sex_couple_024_h,10.0,2.0,6093.0,blue,Fiction,1,1,0,1.0,1.0,1412.0,-2
S015,Male_024_h,11.0,2.0,5137.0,green,Reality,3,4,4,1.0,1.0,3976.0,-1
S015,Opposite-sex_couple_035_h,12.0,2.0,6540.0,blue,Fiction,1,3,5,1.0,1.0,1429.0,-2
S015,Male_005_v,13.0,2.0,6168.0,green,Reality,1,1,3,1.0,1.0,1266.0,-2
S015,Male_022_v,14.0,2.0,6393.0,blue,Fiction,1,1,2,1.0,1.0,1348.0,-3
S015,Opposite-sex_couple_011_h,15.0,2.0,5997.0,blue,Fiction,3,4,4,1.0,1.0,1085.0,-2
S015,Male_009_v,16.0,2.0,6536.0,blue,Fiction,1,3,3,1.0,1.0,1459.0,-2
S015,Opposite-sex_couple_022_v,17.0,2.0,6262.0,blue,Fiction,1,3,4,1.0,1.0,2625.0,1
S015,Opposite-sex_couple_012_h,18.0,2.0,4708.0,green,Reality,1,1,1,1.0,1.0,1801.0,0
S015,Male_004_v,19.0,2.0,4215.0,blue,Fiction,1,1,3,1.0,1.0,2338.0,1
S015,Male_010_v,20.0,2.0,3554.0,blue,Fiction,1,1,3,1.0,1.0,2599.0,-2
S015,Male_018_v,21.0,2.0,4049.0,green,Reality,1,1,2,1.0,1.0,1265.0,-2
S015,Opposite-sex_couple_025_h,22.0,2.0,5548.0,green,Reality,3,4,4,1.0,1.0,1901.0,-2
S015,Male_023_v,23.0,2.0,3563.0,blue,Fiction,1,1,3,1.0,1.0,1048.0,2
S015,Male_016_v,24.0,2.0,6648.0,blue,Fiction,1,2,3,1.0,1.0,1041.0,-2
S015,Opposite-sex_couple_005_h,25.0,2.0,5206.0,green,Reality,3,4,4,1.0,1.0,1431.0,-2
S015,Male_014_v,26.0,2.0,5923.0,blue,Fiction,1,2,3,1.0,1.0,1043.0,-2
S015,Male_017_v,27.0,2.0,5002.0,green,Reality,1,2,3,1.0,1.0,1175.0,2
S015,Male_021_h,28.0,2.0,5793.0,blue,Fiction,1,1,2,1.0,1.0,2302.0,0
S015,Opposite-sex_couple_020_h,29.0,2.0,7464.0,blue,Fiction,2,2,3,1.0,1.0,4164.0,-2
S015,Opposite-sex_couple_014_h,30.0,2.0,6371.0,green,Reality,3,4,4,1.0,1.0,2216.0,0
S015,Male_001_v,31.0,2.0,5960.0,blue,Fiction,0,1,3,1.0,1.0,1347.0,2
S015,Opposite-sex_couple_023_h,32.0,2.0,4890.0,green,Reality,1,1,2,1.0,1.0,1363.0,-2
S015,Opposite-sex_couple_015_h,33.0,2.0,5200.0,blue,Fiction,1,1,3,1.0,1.0,1915.0,2
S015,Opposite-sex_couple_033_v,34.0,2.0,5508.0,blue,Fiction,1,2,3,1.0,1.0,2783.0,-2
S015,Opposite-sex_couple_048_h,35.0,2.0,6162.0,green,Reality,1,2,3,1.0,1.0,1177.0,2
S015,Male_006_v,36.0,2.0,6320.0,green,Reality,0,1,2,1.0,1.0,2236.0,1
S015,Opposite-sex_couple_047_v,37.0,2.0,7298.0,blue,Fiction,1,2,3,1.0,1.0,1115.0,2
S015,Male_008_v,38.0,2.0,5552.0,green,Reality,2,2,4,1.0,1.0,1633.0,-2
S015,Male_025_v,39.0,2.0,4134.0,green,Reality,0,0,2,1.0,1.0,1358.0,2
S015,Opposite-sex_couple_009_h,40.0,2.0,5517.0,green,Reality,1,2,3,1.0,1.0,1339.0,-2
S015,Male_003_v,41.0,2.0,5433.0,blue,Fiction,0,1,3,1.0,1.0,1089.0,2
S015,Opposite-sex_couple_017_v,42.0,2.0,6309.0,green,Reality,1,2,4,1.0,1.0,1426.0,2
S015,Male_013_v,43.0,2.0,5577.0,green,Reality,1,1,3,1.0,1.0,1103.0,-2
S015,Opposite-sex_couple_019_v,44.0,2.0,7963.0,green,Reality,0,1,5,1.0,1.0,976.0,3
S015,Male_019_h,45.0,2.0,4932.0,blue,Fiction,0,1,2,1.0,1.0,1157.0,2
S015,Male_011_v,46.0,2.0,4993.0,green,Reality,1,1,4,1.0,1.0,900.0,2
S015,Male_002_v,47.0,2.0,5740.0,green,Reality,0,1,4,1.0,1.0,1088.0,2
S015,Opposite-sex_couple_013_h,48.0,2.0,7266.0,green,Reality,0,1,2,1.0,1.0,4246.0,-2
S015,Opposite-sex_couple_002_h,49.0,2.0,6497.0,blue,Fiction,1,2,3,1.0,1.0,1256.0,-2
S015,Male_020_v,50.0,2.0,5220.0,blue,Fiction,1,1,3,1.0,1.0,1246.0,-3
S001,Male_024_h,1.0,2.0,12635.0,blue,Fiction,0,2,0,1.0,1.0,2001.0,-2
S001,Opposite-sex_couple_017_v,2.0,2.0,9488.0,green,Reality,1,2,0,1.0,1.0,1178.0,-2
S001,Opposite-sex_couple_020_h,3.0,2.0,5565.0,blue,Fiction,1,1,0,1.0,1.0,1242.0,-1
S001,Male_021_h,4.0,2.0,6388.0,green,Reality,0,0,0,1.0,1.0,1860.0,-3
S001,Male_017_v,5.0,2.0,12596.0,blue,Fiction,0,0,0,1.0,1.0,2181.0,0
S001,Opposite-sex_couple_009_h,6.0,2.0,6771.0,blue,Fiction,2,2,2,1.0,1.0,3600.0,1
S001,Male_008_v,7.0,2.0,3880.0,blue,Fiction,0,0,0,1.0,1.0,2014.0,-3
S001,Opposite-sex_couple_018_h,8.0,2.0,4958.0,blue,Fiction,1,1,0,1.0,1.0,3486.0,-3
S001,Opposite-sex_couple_025_h,9.0,2.0,6864.0,green,Reality,2,2,2,1.0,1.0,3588.0,3
S001,Opposite-sex_couple_015_h,10.0,2.0,11688.0,blue,Fiction,1,1,1,1.0,1.0,1061.0,-2
S001,Opposite-sex_couple_045_h,11.0,2.0,22898.0,green,Reality,1,1,0,1.0,1.0,1010.0,0
S001,Opposite-sex_couple_010_h,12.0,2.0,35451.0,green,Reality,1,1,1,1.0,1.0,1813.0,0
S001,Male_018_v,13.0,2.0,82741.0,green,Reality,0,0,0,1.0,1.0,1118.0,0
S001,Opposite-sex_couple_022_v,14.0,2.0,7716.0,green,Reality,0,0,0,1.0,1.0,944.0,0
S001,Male_009_v,15.0,2.0,8339.0,green,Reality,0,0,0,1.0,1.0,3763.0,2
S001,Male_004_v,16.0,2.0,7247.0,blue,Fiction,0,0,0,1.0,1.0,1166.0,2
S001,Opposite-sex_couple_043_v,17.0,2.0,7414.0,green,Reality,0,0,0,1.0,1.0,1283.0,-2
S001,Male_025_v,18.0,2.0,9644.0,green,Reality,0,0,0,1.0,1.0,1104.0,-3
S001,Opposite-sex_couple_033_v,19.0,2.0,7748.0,green,Reality,1,1,0,1.0,1.0,1341.0,0
S001,Opposite-sex_couple_016_v,20.0,2.0,20719.0,green,Reality,0,0,0,1.0,1.0,2788.0,-2
S001,Opposite-sex_couple_014_h,21.0,2.0,10114.0,blue,Fiction,1,1,1,1.0,1.0,6793.0,1
S001,Opposite-sex_couple_048_h,22.0,2.0,8490.0,green,Reality,0,0,0,1.0,1.0,1705.0,1
S001,Opposite-sex_couple_008_h,23.0,2.0,6803.0,blue,Fiction,1,0,0,1.0,1.0,1505.0,2
S001,Male_015_v,24.0,2.0,5452.0,green,Reality,0,0,0,1.0,1.0,1039.0,2
S001,Opposite-sex_couple_019_v,25.0,2.0,17829.0,blue,Fiction,0,0,0,1.0,1.0,1062.0,-3
S001,Male_019_h,26.0,2.0,12262.0,green,Reality,0,0,0,1.0,1.0,1167.0,-3
S001,Opposite-sex_couple_005_h,27.0,2.0,8707.0,green,Reality,1,0,0,1.0,1.0,7221.0,-2
S001,Male_007_h,28.0,2.0,6887.0,blue,Fiction,0,0,0,1.0,1.0,2321.0,-1
S001,Male_011_v,29.0,2.0,7516.0,blue,Fiction,0,0,0,1.0,1.0,2009.0,0
S001,Opposite-sex_couple_001_v,30.0,2.0,5439.0,blue,Fiction,0,0,0,1.0,1.0,2288.0,-2
S001,Male_023_v,31.0,2.0,6492.0,green,Reality,0,0,0,1.0,1.0,2143.0,0
S001,Opposite-sex_couple_013_h,32.0,2.0,4691.0,green,Reality,0,0,0,1.0,1.0,2028.0,-2
S001,Male_003_v,33.0,2.0,4490.0,blue,Fiction,0,0,0,1.0,1.0,2759.0,0
S001,Male_013_v,34.0,2.0,9364.0,blue,Fiction,0,0,0,1.0,1.0,1629.0,-1
S001,Male_006_v,35.0,2.0,10917.0,green,Reality,0,0,0,1.0,1.0,1182.0,0
S001,Opposite-sex_couple_024_h,36.0,2.0,4652.0,green,Reality,1,1,1,1.0,1.0,1145.0,3
S001,Male_002_v,37.0,2.0,6043.0,green,Reality,0,0,0,1.0,1.0,1217.0,2
S001,Opposite-sex_couple_047_v,38.0,2.0,11164.0,blue,Fiction,0,0,0,1.0,1.0,4751.0,0
S001,Opposite-sex_couple_023_h,39.0,2.0,5063.0,blue,Fiction,1,1,1,1.0,1.0,2275.0,1
S001,Male_012_h,40.0,2.0,9072.0,green,Reality,0,0,0,1.0,1.0,1655.0,0
S001,Opposite-sex_couple_003_v,41.0,2.0,5167.0,blue,Fiction,0,0,0,1.0,1.0,2507.0,3
S001,Male_010_v,42.0,2.0,5808.0,blue,Fiction,0,0,0,1.0,1.0,1972.0,1
S001,Opposite-sex_couple_011_h,43.0,2.0,7829.0,blue,Fiction,0,0,0,1.0,1.0,3776.0,1
S001,Opposite-sex_couple_035_h,44.0,2.0,5641.0,green,Reality,0,0,0,1.0,1.0,1140.0,-2
S001,Opposite-sex_couple_042_h,45.0,2.0,6603.0,green,Reality,0,0,0,1.0,1.0,1053.0,-2
S001,Male_014_v,46.0,2.0,7064.0,green,Reality,0,0,0,1.0,1.0,3929.0,2
S001,Opposite-sex_couple_007_h,47.0,2.0,12308.0,blue,Fiction,0,0,0,1.0,1.0,1400.0,0
S001,Opposite-sex_couple_030_v,48.0,2.0,6061.0,green,Reality,0,0,0,1.0,1.0,1192.0,0
S001,Male_001_v,49.0,2.0,5596.0,green,Reality,0,0,0,1.0,1.0,943.0,0
S001,Male_016_v,50.0,2.0,7356.0,blue,Fiction,0,0,0,1.0,1.0,5562.0,-2
S001,Male_005_v,51.0,2.0,5106.0,blue,Fiction,0,0,0,1.0,1.0,954.0,0
S001,Male_020_v,52.0,2.0,7661.0,green,Reality,0,0,0,1.0,1.0,3708.0,1
S001,Male_022_v,53.0,2.0,5876.0,blue,Fiction,0,0,0,1.0,1.0,1677.0,3
S001,Opposite-sex_couple_012_h,54.0,2.0,9605.0,blue,Fiction,0,0,0,1.0,1.0,2687.0,-3
S001,Opposite-sex_couple_002_h,55.0,2.0,6169.0,blue,Fiction,0,0,0,1.0,1.0,1187.0,-2
S003,Opposite-sex_couple_022_v,1.0,2.0,14347.0,blue,Fiction,5,4,5,1.0,1.0,2288.0,-3
S003,Male_021_h,2.0,2.0,11294.0,blue,Fiction,3,3,4,1.0,1.0,1248.0,-3
S003,Male_006_v,3.0,2.0,11225.0,green,Reality,6,6,5,1.0,1.0,6282.0,-3
S003,Opposite-sex_couple_048_h,4.0,2.0,6477.0,green,Reality,6,6,6,1.0,1.0,2298.0,-2
S003,Male_008_v,5.0,2.0,22355.0,blue,Fiction,3,4,4,1.0,1.0,3182.0,-2
S003,Male_005_v,6.0,2.0,8126.0,blue,Fiction,3,4,3,1.0,1.0,9161.0,-2
S003,Opposite-sex_couple_042_h,7.0,2.0,10047.0,blue,Fiction,4,3,3,1.0,1.0,2757.0,-3
S003,Male_017_v,8.0,2.0,8118.0,blue,Fiction,4,5,4,1.0,1.0,3169.0,2
S003,Male_007_h,9.0,2.0,6587.0,green,Reality,1,1,1,1.0,1.0,2402.0,-2
S003,Male_020_v,10.0,2.0,10697.0,green,Reality,2,1,2,1.0,1.0,3549.0,-3
S003,Opposite-sex_couple_015_h,11.0,2.0,6854.0,blue,Fiction,4,5,4,1.0,1.0,1718.0,3
S003,Male_015_v,12.0,2.0,9140.0,green,Reality,0,1,1,1.0,1.0,2744.0,-1
S003,Opposite-sex_couple_005_h,13.0,2.0,8621.0,blue,Fiction,6,6,6,1.0,1.0,3424.0,3
S003,Opposite-sex_couple_013_h,14.0,2.0,11589.0,green,Reality,5,4,5,1.0,1.0,2588.0,-2
S003,Male_012_h,15.0,2.0,10315.0,blue,Fiction,6,6,6,1.0,1.0,2375.0,-2
S003,Opposite-sex_couple_009_h,16.0,2.0,6167.0,blue,Fiction,2,2,3,1.0,1.0,2133.0,-1
S003,Male_003_v,17.0,2.0,5772.0,blue,Fiction,2,1,3,1.0,1.0,2259.0,2
S003,Male_010_v,18.0,2.0,5681.0,blue,Fiction,3,2,3,1.0,1.0,1382.0,-3
S003,Male_002_v,19.0,2.0,8832.0,blue,Fiction,1,1,2,1.0,1.0,1235.0,-2
S003,Opposite-sex_couple_023_h,20.0,2.0,6488.0,blue,Fiction,5,6,5,1.0,1.0,1808.0,3
S003,Opposite-sex_couple_001_v,21.0,2.0,17215.0,blue,Fiction,4,2,4,1.0,1.0,2615.0,3
S003,Male_013_v,22.0,2.0,6185.0,green,Reality,2,1,2,1.0,1.0,2024.0,-2
S003,Male_018_v,23.0,2.0,13971.0,green,Reality,3,2,4,1.0,1.0,2352.0,3
S003,Opposite-sex_couple_007_h,24.0,2.0,6890.0,green,Reality,2,5,5,1.0,1.0,2917.0,-1
S003,Opposite-sex_couple_014_h,25.0,2.0,9090.0,blue,Fiction,5,4,5,1.0,1.0,2810.0,-1
S003,Male_025_v,26.0,2.0,5852.0,green,Reality,4,6,4,1.0,1.0,2497.0,2
S003,Opposite-sex_couple_012_h,27.0,2.0,7211.0,blue,Fiction,6,6,6,1.0,1.0,16173.0,2
S003,Male_023_v,28.0,2.0,11982.0,blue,Fiction,4,5,4,1.0,1.0,1828.0,-2
S003,Opposite-sex_couple_047_v,29.0,2.0,7237.0,blue,Fiction,2,2,4,1.0,1.0,2022.0,2
S003,Opposite-sex_couple_024_h,30.0,2.0,11136.0,green,Reality,5,4,5,1.0,1.0,3381.0,2
S003,Male_016_v,31.0,2.0,10615.0,green,Reality,3,4,3,1.0,1.0,2019.0,3
S003,Male_004_v,32.0,2.0,5969.0,green,Reality,4,3,4,1.0,1.0,2634.0,-1
S003,Opposite-sex_couple_025_h,33.0,2.0,8543.0,blue,Fiction,6,6,6,1.0,1.0,9888.0,3
S003,Opposite-sex_couple_035_h,34.0,2.0,14272.0,green,Reality,4,5,5,1.0,1.0,2540.0,-3
S003,Male_022_v,35.0,2.0,10004.0,green,Reality,3,4,5,1.0,1.0,2855.0,-3
S003,Opposite-sex_couple_008_h,36.0,2.0,7077.0,green,Reality,5,4,4,1.0,1.0,1774.0,-2
S003,Opposite-sex_couple_018_h,37.0,2.0,7105.0,green,Reality,3,4,4,1.0,1.0,3531.0,2
S003,Opposite-sex_couple_017_v,38.0,2.0,5987.0,green,Reality,2,3,3,1.0,1.0,1900.0,-3
S003,Male_019_h,39.0,2.0,7505.0,green,Reality,2,3,2,1.0,1.0,3039.0,3
S003,Opposite-sex_couple_002_h,40.0,2.0,6585.0,green,Reality,5,5,4,1.0,1.0,2015.0,-3
S003,Opposite-sex_couple_033_v,41.0,2.0,7797.0,green,Reality,2,2,3,1.0,1.0,4301.0,3
S003,Male_001_v,42.0,2.0,6271.0,green,Reality,0,1,0,1.0,1.0,2071.0,-2
S003,Opposite-sex_couple_019_v,43.0,2.0,11827.0,green,Reality,0,2,1,1.0,1.0,3062.0,3
S003,Male_009_v,44.0,2.0,6731.0,blue,Fiction,0,2,1,1.0,1.0,2269.0,-3
S003,Opposite-sex_couple_016_v,45.0,2.0,5487.0,green,Reality,4,3,4,1.0,1.0,2835.0,-3
S003,Male_014_v,46.0,2.0,13042.0,blue,Fiction,6,4,5,1.0,1.0,2457.0,1
S003,Male_011_v,47.0,2.0,5019.0,green,Reality,0,0,1,1.0,1.0,1539.0,-3
S003,Opposite-sex_couple_020_h,48.0,2.0,6412.0,green,Reality,6,5,5,1.0,1.0,2398.0,2
S003,Male_024_h,49.0,2.0,8120.0,blue,Fiction,6,4,5,1.0,1.0,4074.0,1
S003,Opposite-sex_couple_011_h,50.0,2.0,5728.0,blue,Fiction,4,3,2,1.0,1.0,2191.0,3
S009,Opposite-sex_couple_012_h,1.0,2.0,10727.0,green,Reality,0,0,0,1.0,1.0,1694.0,3
S009,Opposite-sex_couple_001_v,2.0,2.0,5478.0,red,Fiction,0,0,0,1.0,1.0,1144.0,3
S009,Opposite-sex_couple_014_h,3.0,2.0,4658.0,red,Fiction,0,0,0,1.0,1.0,1387.0,3
S009,Female_002_h,4.0,2.0,5715.0,red,Fiction,4,2,3,1.0,1.0,1498.0,3
S009,Female_013_h,5.0,2.0,4633.0,red,Fiction,0,0,0,1.0,1.0,1211.0,0
S009,Female_010_h,6.0,2.0,4029.0,red,Fiction,0,0,0,1.0,1.0,1829.0,1
S009,Female_012_v,7.0,2.0,4093.0,red,Fiction,3,1,0,1.0,1.0,1579.0,-2
S009,Female_020_v,8.0,2.0,6148.0,green,Reality,5,3,5,1.0,1.0,1620.0,3
S009,Opposite-sex_couple_020_h,9.0,2.0,4813.0,green,Reality,2,1,0,1.0,1.0,1359.0,2
S009,Female_019_h,10.0,2.0,6455.0,green,Reality,0,0,0,1.0,1.0,1154.0,2
S009,Opposite-sex_couple_024_h,11.0,2.0,4574.0,green,Reality,0,0,0,1.0,1.0,3279.0,1
S009,Female_007_v,12.0,2.0,4283.0,red,Fiction,0,0,0,1.0,1.0,1743.0,1
S009,Female_008_v,13.0,2.0,4886.0,red,Fiction,0,0,0,1.0,1.0,1957.0,-2
S009,Opposite-sex_couple_009_h,14.0,2.0,4607.0,red,Fiction,3,0,0,1.0,1.0,1516.0,3
S009,Female_006_v,15.0,2.0,6092.0,red,Fiction,1,0,0,1.0,1.0,1761.0,2
S009,Female_024_v,16.0,2.0,6209.0,red,Fiction,0,0,0,1.0,1.0,2020.0,-2
S009,Female_018_h,17.0,2.0,4875.0,green,Reality,0,2,0,1.0,1.0,1207.0,3
S009,Opposite-sex_couple_013_h,18.0,2.0,4706.0,green,Reality,0,0,0,1.0,1.0,1023.0,3
S009,Opposite-sex_couple_042_h,19.0,2.0,5178.0,green,Reality,0,5,0,1.0,1.0,1890.0,1
S009,Opposite-sex_couple_017_v,20.0,2.0,4098.0,red,Fiction,0,0,0,1.0,1.0,1615.0,0
S009,Opposite-sex_couple_025_h,21.0,2.0,5302.0,green,Reality,3,0,0,1.0,1.0,1216.0,3
S009,Opposite-sex_couple_016_v,22.0,2.0,4969.0,green,Reality,0,0,0,1.0,1.0,3802.0,-2
S009,Female_004_v,23.0,2.0,3616.0,green,Reality,0,0,0,1.0,1.0,1406.0,1
S009,Female_015_v,24.0,2.0,4844.0,red,Fiction,0,0,0,1.0,1.0,1637.0,-1
S009,Opposite-sex_couple_005_h,25.0,2.0,5157.0,red,Fiction,0,0,2,1.0,1.0,1944.0,-2
S009,Opposite-sex_couple_011_h,26.0,2.0,4191.0,green,Reality,0,0,0,1.0,1.0,1395.0,2
S009,Female_023_h,27.0,2.0,3760.0,green,Reality,2,0,2,1.0,1.0,1608.0,3
S009,Opposite-sex_couple_019_v,28.0,2.0,4099.0,green,Reality,0,0,0,1.0,1.0,2068.0,-3
S009,Opposite-sex_couple_018_h,29.0,2.0,4745.0,green,Reality,4,4,4,1.0,1.0,1039.0,3
S009,Opposite-sex_couple_035_h,30.0,2.0,4618.0,red,Fiction,0,0,0,1.0,1.0,1390.0,1
S009,Female_025_h,31.0,2.0,4096.0,green,Reality,0,0,0,1.0,1.0,1900.0,3
S009,Female_005_v,32.0,2.0,4097.0,green,Reality,0,0,0,1.0,1.0,2091.0,3
S009,Female_022_h,33.0,2.0,4262.0,green,Reality,4,5,5,1.0,1.0,2876.0,3
S009,Opposite-sex_couple_023_h,34.0,2.0,3845.0,red,Fiction,0,0,0,1.0,1.0,1795.0,2
S009,Opposite-sex_couple_022_v,35.0,2.0,5048.0,red,Fiction,0,0,0,1.0,1.0,2449.0,1
S009,Female_009_h,36.0,2.0,4185.0,green,Reality,0,0,0,1.0,1.0,2047.0,0
S009,Opposite-sex_couple_015_h,37.0,2.0,4766.0,green,Reality,0,0,0,1.0,1.0,1766.0,2
S009,Opposite-sex_couple_007_h,38.0,2.0,4108.0,red,Fiction,0,2,1,1.0,1.0,905.0,3
S009,Opposite-sex_couple_047_v,39.0,2.0,3430.0,green,Reality,0,0,0,1.0,1.0,1409.0,2
S009,Female_017_v,40.0,2.0,4388.0,red,Fiction,0,0,0,1.0,1.0,2089.0,-3
S009,Female_014_v,41.0,2.0,3478.0,green,Reality,2,0,1,1.0,1.0,2584.0,2
S009,Female_001_h,42.0,2.0,6162.0,green,Reality,0,0,0,1.0,1.0,1064.0,3
S009,Female_016_h,43.0,2.0,5158.0,red,Fiction,0,0,0,1.0,1.0,2315.0,-2
S009,Opposite-sex_couple_033_v,44.0,2.0,4462.0,green,Reality,0,0,0,1.0,1.0,1456.0,3
S009,Opposite-sex_couple_002_h,45.0,2.0,3677.0,red,Fiction,0,0,0,1.0,1.0,1824.0,3
S009,Opposite-sex_couple_048_h,46.0,2.0,3894.0,red,Fiction,0,2,1,1.0,1.0,1807.0,2
S009,Female_021_h,47.0,2.0,3830.0,green,Reality,0,0,0,1.0,1.0,1632.0,0
S009,Female_011_h,48.0,2.0,4826.0,red,Fiction,2,4,5,1.0,1.0,1575.0,-2
S009,Opposite-sex_couple_008_h,49.0,2.0,4303.0,red,Fiction,4,2,1,1.0,1.0,1350.0,3
S009,Female_003_v,50.0,2.0,4355.0,green,Reality,0,0,3,1.0,1.0,1326.0,1
S013,Female_009_h,1.0,2.0,8483.0,blue,Fiction,6,6,6,1.0,1.0,2663.0,3
S013,Opposite-sex_couple_001_v,2.0,2.0,4841.0,green,Reality,6,6,6,1.0,1.0,1335.0,3
S013,Opposite-sex_couple_033_v,3.0,2.0,4328.0,green,Reality,6,6,6,1.0,1.0,1720.0,3
S013,Female_003_v,4.0,2.0,4148.0,green,Reality,6,6,6,1.0,1.0,2948.0,1
S013,Opposite-sex_couple_042_h,5.0,2.0,8719.0,green,Reality,1,2,3,1.0,1.0,1799.0,3
S013,Female_019_h,6.0,2.0,6320.0,blue,Fiction,4,4,2,1.0,1.0,1611.0,-3
S013,Female_007_v,7.0,2.0,9740.0,green,Reality,0,2,3,1.0,1.0,1424.0,3
S013,Opposite-sex_couple_002_h,8.0,2.0,4036.0,blue,Fiction,6,5,4,1.0,1.0,3156.0,3
S013,Opposite-sex_couple_018_h,9.0,2.0,4587.0,blue,Fiction,6,6,6,1.0,1.0,3143.0,-1
S013,Female_022_h,10.0,2.0,3990.0,blue,Fiction,6,6,6,1.0,1.0,1946.0,-3
S013,Female_011_h,11.0,2.0,5833.0,green,Reality,3,3,4,1.0,1.0,1406.0,3
S013,Female_023_h,12.0,2.0,4159.0,green,Reality,4,3,5,1.0,1.0,1295.0,-2
S013,Opposite-sex_couple_020_h,13.0,2.0,4133.0,blue,Fiction,6,5,5,1.0,1.0,1417.0,3
S013,Opposite-sex_couple_014_h,14.0,2.0,5538.0,green,Reality,6,6,6,1.0,1.0,1591.0,3
S013,Opposite-sex_couple_009_h,15.0,2.0,4415.0,blue,Fiction,5,4,5,1.0,1.0,1498.0,3
S013,Female_021_h,16.0,2.0,7743.0,blue,Fiction,4,4,3,1.0,1.0,1296.0,-3
S013,Female_024_v,17.0,2.0,4496.0,blue,Fiction,0,1,1,1.0,1.0,1831.0,2
S013,Opposite-sex_couple_016_v,18.0,2.0,7998.0,blue,Fiction,3,3,5,1.0,1.0,1604.0,3
S013,Opposite-sex_couple_012_h,19.0,2.0,6182.0,green,Reality,6,5,6,1.0,1.0,1304.0,3
S013,Female_025_h,20.0,2.0,3973.0,blue,Fiction,6,6,6,1.0,1.0,1862.0,3
S013,Opposite-sex_couple_017_v,21.0,2.0,4570.0,green,Reality,4,4,5,1.0,1.0,1310.0,3
S013,Female_012_v,22.0,2.0,5205.0,green,Reality,6,5,4,1.0,1.0,2169.0,2
S013,Female_015_v,23.0,2.0,8985.0,blue,Fiction,4,4,4,1.0,1.0,3124.0,-3
S013,Female_018_h,24.0,2.0,5622.0,green,Reality,6,6,6,1.0,1.0,2504.0,-1
S013,Female_016_h,25.0,2.0,9487.0,blue,Fiction,2,2,3,1.0,1.0,1411.0,-3
S013,Opposite-sex_couple_048_h,26.0,2.0,5234.0,blue,Fiction,4,3,5,1.0,1.0,1498.0,3
S013,Opposite-sex_couple_022_v,27.0,2.0,6362.0,blue,Fiction,2,3,3,1.0,1.0,1374.0,3
S013,Opposite-sex_couple_007_h,28.0,2.0,5417.0,blue,Fiction,2,4,4,1.0,1.0,1669.0,3
S013,Female_002_h,29.0,2.0,5281.0,blue,Fiction,6,6,6,1.0,1.0,3640.0,3
S013,Opposite-sex_couple_013_h,30.0,2.0,5293.0,green,Reality,0,0,0,1.0,1.0,1759.0,3
S013,Opposite-sex_couple_011_h,31.0,2.0,6896.0,green,Reality,3,4,6,1.0,1.0,1532.0,3
S013,Opposite-sex_couple_035_h,32.0,2.0,5033.0,green,Reality,2,3,4,1.0,1.0,1737.0,-2
S013,Female_020_v,33.0,2.0,5328.0,green,Reality,6,6,6,1.0,1.0,1554.0,3
S013,Female_017_v,34.0,2.0,5882.0,blue,Fiction,6,6,6,1.0,1.0,2840.0,-3
S013,Female_013_h,35.0,2.0,4883.0,blue,Fiction,6,6,6,1.0,1.0,1780.0,-3
S013,Female_006_v,36.0,2.0,4704.0,green,Reality,4,4,4,1.0,1.0,1557.0,3
S013,Female_004_v,37.0,2.0,5342.0,green,Reality,1,2,3,1.0,1.0,1630.0,-1
S013,Opposite-sex_couple_023_h,38.0,2.0,7246.0,green,Reality,6,5,4,1.0,1.0,2493.0,3
S013,Female_005_v,39.0,2.0,7197.0,green,Reality,2,3,3,1.0,1.0,1320.0,3
S013,Opposite-sex_couple_047_v,40.0,2.0,5666.0,blue,Fiction,1,2,3,1.0,1.0,1356.0,3
S013,Female_010_h,41.0,2.0,6933.0,green,Reality,1,2,4,1.0,1.0,1274.0,3
S013,Opposite-sex_couple_025_h,42.0,2.0,5681.0,blue,Fiction,6,6,6,1.0,1.0,5406.0,-1
S013,Opposite-sex_couple_008_h,43.0,2.0,5207.0,green,Reality,6,5,5,1.0,1.0,1516.0,3
S013,Opposite-sex_couple_005_h,44.0,2.0,4447.0,blue,Fiction,6,6,6,1.0,1.0,7800.0,3
S013,Opposite-sex_couple_015_h,45.0,2.0,5042.0,blue,Fiction,4,3,5,1.0,1.0,2325.0,3
S013,Female_001_h,46.0,2.0,7479.0,green,Reality,6,5,5,1.0,1.0,1425.0,3
S013,Female_008_v,47.0,2.0,5160.0,green,Reality,0,1,2,1.0,1.0,2514.0,-1
S013,Opposite-sex_couple_019_v,48.0,2.0,5640.0,green,Reality,0,4,6,1.0,1.0,1682.0,-3
S013,Female_014_v,49.0,2.0,5135.0,blue,Fiction,3,3,4,1.0,1.0,1102.0,3
S013,Opposite-sex_couple_024_h,50.0,2.0,6133.0,green,Reality,6,6,6,1.0,1.0,2839.0,2
S006,Opposite-sex_couple_009_h,1.0,2.0,6194.0,red,Fiction,5,5,5,1.0,1.0,2040.0,2
S006,Male_018_v,2.0,2.0,5167.0,red,Fiction,2,1,2,1.0,1.0,1273.0,2
S006,Male_011_v,3.0,2.0,4482.0,green,Reality,0,0,0,1.0,1.0,1173.0,3
S006,Male_009_v,4.0,2.0,5662.0,red,Fiction,0,2,2,1.0,1.0,2100.0,-3
S006,Male_012_h,5.0,2.0,5076.0,green,Reality,0,1,2,1.0,1.0,1243.0,2
S006,Opposite-sex_couple_002_h,6.0,2.0,6313.0,red,Fiction,3,2,4,1.0,1.0,1145.0,2
S006,Male_022_v,7.0,2.0,4549.0,red,Fiction,6,6,6,1.0,1.0,2375.0,-1
S006,Male_003_v,8.0,2.0,5447.0,green,Reality,0,1,1,1.0,1.0,2352.0,-1
S006,Male_023_v,9.0,2.0,4731.0,red,Fiction,0,0,0,1.0,1.0,2215.0,-3
S006,Opposite-sex_couple_001_v,10.0,2.0,5730.0,red,Fiction,2,2,4,1.0,1.0,2254.0,0
S006,Opposite-sex_couple_033_v,11.0,2.0,6420.0,green,Reality,4,5,4,1.0,1.0,1807.0,3
S006,Opposite-sex_couple_016_v,12.0,2.0,5597.0,red,Fiction,1,2,3,1.0,1.0,1322.0,2
S006,Male_021_h,13.0,2.0,6195.0,green,Reality,0,1,1,1.0,1.0,1693.0,2
S006,Opposite-sex_couple_025_h,14.0,2.0,5225.0,green,Reality,6,6,6,1.0,1.0,1417.0,2
S006,Opposite-sex_couple_012_h,15.0,2.0,5191.0,red,Fiction,6,6,6,1.0,1.0,2261.0,3
S006,Opposite-sex_couple_007_h,16.0,2.0,7307.0,green,Reality,3,3,4,1.0,1.0,1371.0,2
S006,Male_016_v,17.0,2.0,4330.0,green,Reality,0,0,0,1.0,1.0,1733.0,2
S006,Opposite-sex_couple_022_v,18.0,2.0,5341.0,green,Reality,2,2,3,1.0,1.0,3875.0,2
S006,Opposite-sex_couple_018_h,19.0,2.0,5067.0,red,Fiction,6,6,6,1.0,1.0,1784.0,3
S006,Male_019_h,20.0,2.0,5173.0,red,Fiction,0,0,0,1.0,1.0,1324.0,2
S006,Male_010_v,21.0,2.0,6631.0,red,Fiction,0,0,0,1.0,1.0,1231.0,2
S006,Opposite-sex_couple_023_h,22.0,2.0,7032.0,green,Reality,1,1,1,1.0,1.0,1293.0,2
S006,Male_020_v,23.0,2.0,6681.0,red,Fiction,1,1,2,1.0,1.0,2146.0,-2
S006,Opposite-sex_couple_019_v,24.0,2.0,6908.0,red,Fiction,1,3,4,1.0,1.0,2284.0,-2
S006,Opposite-sex_couple_020_h,25.0,2.0,7811.0,green,Reality,2,1,2,1.0,1.0,1655.0,2
S006,Opposite-sex_couple_048_h,26.0,2.0,6263.0,green,Reality,4,3,4,1.0,1.0,2187.0,-1
S006,Opposite-sex_couple_017_v,27.0,2.0,5238.0,green,Reality,2,3,3,1.0,1.0,1346.0,2
S006,Male_005_v,28.0,2.0,4675.0,red,Fiction,0,0,0,1.0,1.0,2806.0,-3
S006,Male_008_v,29.0,2.0,5279.0,green,Reality,0,0,0,1.0,1.0,2096.0,2
S006,Male_001_v,30.0,2.0,4873.0,green,Reality,0,0,0,1.0,1.0,1666.0,3
S006,Opposite-sex_couple_015_h,31.0,2.0,5274.0,red,Fiction,4,3,3,1.0,1.0,4177.0,1
S006,Male_006_v,32.0,2.0,5483.0,red,Fiction,0,0,0,1.0,1.0,1515.0,2
S006,Opposite-sex_couple_013_h,33.0,2.0,7738.0,green,Reality,4,4,4,1.0,1.0,1511.0,2
S006,Opposite-sex_couple_047_v,34.0,2.0,4944.0,green,Reality,1,2,1,1.0,1.0,2779.0,-2
S006,Male_014_v,35.0,2.0,5272.0,red,Fiction,1,1,1,1.0,1.0,2003.0,-3
S006,Male_017_v,36.0,2.0,4297.0,green,Reality,0,0,0,1.0,1.0,2244.0,-3
S006,Male_013_v,37.0,2.0,5641.0,red,Fiction,0,0,0,1.0,1.0,1851.0,2
S006,Male_007_h,38.0,2.0,7731.0,green,Reality,1,2,0,1.0,1.0,1865.0,2
S006,Male_002_v,39.0,2.0,4997.0,red,Fiction,0,0,0,1.0,1.0,1375.0,-1
S006,Opposite-sex_couple_008_h,40.0,2.0,5777.0,green,Reality,4,4,5,1.0,1.0,1151.0,2
S006,Opposite-sex_couple_035_h,41.0,2.0,5103.0,red,Fiction,2,2,1,1.0,1.0,3300.0,2
S006,Male_024_h,42.0,2.0,5520.0,green,Reality,3,2,2,1.0,1.0,2044.0,-1
S006,Opposite-sex_couple_024_h,43.0,2.0,7051.0,green,Reality,1,1,1,1.0,1.0,2294.0,2
S006,Opposite-sex_couple_011_h,44.0,2.0,5604.0,green,Reality,2,1,2,1.0,1.0,2115.0,2
S006,Opposite-sex_couple_042_h,45.0,2.0,6012.0,red,Fiction,2,3,4,1.0,1.0,2177.0,2
S006,Male_015_v,46.0,2.0,4787.0,green,Reality,0,0,0,1.0,1.0,1373.0,2
S006,Opposite-sex_couple_014_h,47.0,2.0,6855.0,red,Fiction,6,6,6,1.0,1.0,2369.0,2
S006,Male_004_v,48.0,2.0,9482.0,green,Reality,0,0,0,1.0,1.0,2242.0,-3
S006,Male_025_v,49.0,2.0,6377.0,green,Reality,0,0,0,1.0,1.0,2278.0,-2
S006,Opposite-sex_couple_005_h,50.0,2.0,5177.0,red,Fiction,6,6,6,1.0,1.0,2918.0,-1
S012,Opposite-sex_couple_015_h,1.0,2.0,8837.0,red,Reality,2,4,5,1.0,1.0,1075.0,-3
S012,Male_015_v,2.0,2.0,5167.0,green,Fiction,0,0,2,1.0,1.0,1207.0,3
S012,Opposite-sex_couple_013_h,3.0,2.0,5101.0,green,Fiction,0,0,2,1.0,1.0,826.0,-3
S012,Opposite-sex_couple_016_v,4.0,2.0,4961.0,green,Fiction,0,2,3,1.0,1.0,1171.0,3
S012,Opposite-sex_couple_007_h,5.0,2.0,5807.0,red,Reality,2,1,3,1.0,1.0,1324.0,3
S012,Opposite-sex_couple_002_h,6.0,2.0,5599.0,red,Reality,2,1,3,1.0,1.0,1597.0,3
S012,Opposite-sex_couple_019_v,7.0,2.0,5897.0,red,Reality,0,1,5,1.0,1.0,862.0,-3
S012,Opposite-sex_couple_018_h,8.0,2.0,7436.0,green,Fiction,0,2,4,1.0,1.0,1231.0,3
S012,Male_008_v,9.0,2.0,11375.0,green,Fiction,0,0,2,1.0,1.0,1156.0,-3
S012,Male_023_v,10.0,2.0,5467.0,green,Fiction,2,1,4,1.0,1.0,1123.0,-3
S012,Male_024_h,11.0,2.0,7052.0,red,Reality,2,1,5,1.0,1.0,801.0,-3
S012,Male_010_v,12.0,2.0,4854.0,red,Reality,0,0,3,1.0,1.0,1379.0,-3
S012,Male_004_v,13.0,2.0,5567.0,green,Fiction,0,2,3,1.0,1.0,1114.0,3
S012,Male_020_v,14.0,2.0,4319.0,red,Reality,0,3,3,1.0,1.0,2266.0,1
S012,Opposite-sex_couple_008_h,15.0,2.0,5181.0,green,Fiction,4,4,5,1.0,1.0,984.0,3
S012,Opposite-sex_couple_009_h,16.0,2.0,5483.0,green,Fiction,4,3,4,1.0,1.0,1917.0,3
S012,Opposite-sex_couple_011_h,17.0,2.0,6176.0,red,Reality,2,2,5,1.0,1.0,1345.0,3
S012,Opposite-sex_couple_033_v,18.0,2.0,5317.0,red,Reality,3,2,6,1.0,1.0,1525.0,2
S012,Opposite-sex_couple_024_h,19.0,2.0,5725.0,green,Fiction,3,2,4,1.0,1.0,1124.0,3
S012,Male_017_v,20.0,2.0,4312.0,red,Reality,0,2,3,1.0,1.0,815.0,-3
S012,Male_022_v,21.0,2.0,5724.0,red,Reality,0,0,1,1.0,1.0,904.0,-3
S012,Opposite-sex_couple_001_v,22.0,2.0,6523.0,green,Fiction,1,1,4,1.0,1.0,999.0,-3
S012,Male_013_v,23.0,2.0,4140.0,green,Fiction,1,1,3,1.0,1.0,1367.0,3
S012,Male_002_v,24.0,2.0,3492.0,red,Reality,0,1,4,1.0,1.0,1208.0,3
S012,Opposite-sex_couple_035_h,25.0,2.0,4079.0,green,Fiction,0,4,5,1.0,1.0,947.0,-3
S012,Opposite-sex_couple_022_v,26.0,2.0,4289.0,green,Fiction,3,1,3,1.0,1.0,1474.0,3
S012,Opposite-sex_couple_005_h,27.0,2.0,5016.0,red,Reality,5,4,4,1.0,1.0,1337.0,2
S012,Opposite-sex_couple_042_h,28.0,2.0,7765.0,red,Reality,0,2,6,1.0,1.0,946.0,-3
S012,Male_016_v,29.0,2.0,3353.0,green,Fiction,0,0,1,1.0,1.0,1543.0,-3
S012,Male_003_v,30.0,2.0,4788.0,red,Reality,0,2,4,1.0,1.0,828.0,-3
S012,Male_012_h,31.0,2.0,3119.0,green,Fiction,0,0,3,1.0,1.0,1274.0,2
S012,Male_025_v,32.0,2.0,4026.0,red,Reality,0,0,0,1.0,1.0,1777.0,3
S012,Male_018_v,33.0,2.0,2922.0,red,Reality,0,0,0,1.0,1.0,2384.0,-2
S012,Opposite-sex_couple_048_h,34.0,2.0,5010.0,green,Fiction,2,2,3,1.0,1.0,1171.0,3
S012,Male_007_h,35.0,2.0,2841.0,red,Reality,0,0,0,1.0,1.0,1136.0,3
S012,Male_006_v,36.0,2.0,2574.0,red,Reality,0,0,0,1.0,1.0,1891.0,2
S012,Opposite-sex_couple_014_h,37.0,2.0,5232.0,red,Reality,3,2,3,1.0,1.0,1455.0,3
S012,Male_014_v,38.0,2.0,5433.0,red,Reality,2,1,4,1.0,1.0,1042.0,-3
S012,Opposite-sex_couple_020_h,39.0,2.0,5975.0,red,Reality,3,4,5,1.0,1.0,1993.0,-3
S012,Male_021_h,40.0,2.0,3371.0,green,Fiction,0,0,2,1.0,1.0,1776.0,-3
S012,Male_001_v,41.0,2.0,3827.0,green,Fiction,0,0,0,1.0,1.0,1173.0,3
S012,Opposite-sex_couple_023_h,42.0,2.0,8396.0,green,Fiction,3,2,4,1.0,1.0,1346.0,-3
S012,Opposite-sex_couple_017_v,43.0,2.0,5469.0,green,Fiction,3,4,5,1.0,1.0,1203.0,3
S012,Male_011_v,44.0,2.0,3142.0,green,Fiction,0,0,2,1.0,1.0,1390.0,2
S012,Male_005_v,45.0,2.0,3583.0,red,Reality,0,0,1,1.0,1.0,1173.0,3
S012,Male_009_v,46.0,2.0,4827.0,green,Fiction,0,2,4,1.0,1.0,1884.0,-3
S012,Male_019_h,47.0,2.0,2667.0,green,Fiction,0,0,1,1.0,1.0,1490.0,3
S012,Opposite-sex_couple_025_h,48.0,2.0,6490.0,red,Reality,5,5,6,1.0,1.0,2153.0,-3
S012,Opposite-sex_couple_012_h,49.0,2.0,4402.0,red,Reality,6,5,5,1.0,1.0,1251.0,3
S012,Opposite-sex_couple_047_v,50.0,2.0,4980.0,red,Reality,0,3,2,1.0,1.0,1986.0,3
S007,Male_012_h,1.0,2.0,7812.0,red,Reality,6,5,5,1.0,1.0,4281.0,-2
S007,Male_010_v,2.0,2.0,13500.0,red,Reality,3,4,3,1.0,1.0,1755.0,3
S007,Opposite-sex_couple_013_h,3.0,2.0,10531.0,red,Reality,0,1,1,1.0,1.0,2476.0,-2
S007,Male_022_v,4.0,2.0,9583.0,blue,Fiction,5,5,5,1.0,1.0,6235.0,-3
S007,Male_005_v,5.0,2.0,14394.0,red,Reality,3,3,3,1.0,1.0,1880.0,-3
S007,Opposite-sex_couple_015_h,6.0,2.0,15655.0,red,Reality,4,4,4,1.0,1.0,2477.0,-3
S007,Male_013_v,7.0,2.0,8805.0,blue,Fiction,2,3,3,1.0,1.0,1766.0,3
S007,Opposite-sex_couple_008_h,8.0,2.0,8796.0,red,Reality,6,6,6,1.0,1.0,2089.0,3
S007,Male_018_v,9.0,2.0,8946.0,red,Reality,2,3,3,1.0,1.0,2396.0,3
S007,Opposite-sex_couple_019_v,10.0,2.0,8367.0,blue,Fiction,1,2,3,1.0,1.0,1873.0,-3
S007,Male_019_h,11.0,2.0,10177.0,blue,Fiction,3,3,3,1.0,1.0,1192.0,3
S007,Male_024_h,12.0,2.0,11741.0,red,Reality,4,5,5,1.0,1.0,2193.0,3
S007,Opposite-sex_couple_005_h,13.0,2.0,6252.0,red,Reality,6,6,6,1.0,1.0,2509.0,3
S007,Opposite-sex_couple_024_h,14.0,2.0,9313.0,red,Reality,6,5,6,1.0,1.0,1262.0,3
S007,Male_006_v,15.0,2.0,12362.0,blue,Fiction,3,3,3,1.0,1.0,3843.0,-3
S007,Opposite-sex_couple_048_h,16.0,2.0,8075.0,blue,Fiction,4,4,4,1.0,1.0,2503.0,3
S007,Opposite-sex_couple_035_h,17.0,2.0,7363.0,red,Reality,1,2,2,1.0,1.0,2048.0,3
S007,Opposite-sex_couple_001_v,18.0,2.0,8323.0,red,Reality,4,4,4,1.0,1.0,2561.0,-1
S007,Male_003_v,19.0,2.0,10152.0,blue,Fiction,5,6,5,1.0,1.0,10043.0,0
S007,Opposite-sex_couple_012_h,20.0,2.0,12430.0,red,Reality,4,5,5,1.0,1.0,1845.0,3
S007,Opposite-sex_couple_020_h,21.0,2.0,5992.0,red,Reality,6,6,6,1.0,1.0,1914.0,3
S007,Male_015_v,22.0,2.0,13396.0,red,Reality,0,1,2,1.0,1.0,1957.0,3
S007,Opposite-sex_couple_018_h,23.0,2.0,5486.0,red,Reality,6,6,6,1.0,1.0,2271.0,3
S007,Male_020_v,24.0,2.0,13090.0,blue,Fiction,4,5,5,1.0,1.0,2539.0,-3
S007,Opposite-sex_couple_007_h,25.0,2.0,6945.0,red,Reality,3,3,3,1.0,1.0,2258.0,3
S007,Male_007_h,26.0,2.0,9333.0,red,Reality,2,3,2,1.0,1.0,2795.0,3
S007,Male_004_v,27.0,2.0,5577.0,blue,Fiction,4,4,4,1.0,1.0,5165.0,2
S007,Opposite-sex_couple_042_h,28.0,2.0,9464.0,blue,Fiction,1,2,2,1.0,1.0,1309.0,3
S007,Male_008_v,29.0,2.0,7337.0,blue,Fiction,2,2,2,1.0,1.0,2791.0,-3
S007,Male_023_v,30.0,2.0,8516.0,red,Reality,4,4,4,1.0,1.0,2833.0,-2
S007,Opposite-sex_couple_011_h,31.0,2.0,7359.0,red,Reality,3,3,3,1.0,1.0,14340.0,-2
S007,Male_009_v,32.0,2.0,8301.0,red,Reality,5,5,5,1.0,1.0,3867.0,0
S007,Male_014_v,33.0,2.0,10979.0,red,Reality,2,2,2,1.0,1.0,1879.0,-3
S007,Opposite-sex_couple_047_v,34.0,2.0,7487.0,blue,Fiction,4,4,5,1.0,1.0,4609.0,3
S007,Opposite-sex_couple_009_h,35.0,2.0,7010.0,blue,Fiction,4,4,4,1.0,1.0,4055.0,0
S007,Opposite-sex_couple_016_v,36.0,2.0,6086.0,blue,Fiction,5,5,5,1.0,1.0,1492.0,3
S007,Male_016_v,37.0,2.0,8308.0,blue,Fiction,3,3,3,1.0,1.0,4012.0,2
S007,Opposite-sex_couple_025_h,38.0,2.0,6782.0,blue,Fiction,6,6,6,1.0,1.0,9806.0,-3
S007,Male_017_v,39.0,2.0,11025.0,red,Reality,3,3,3,1.0,1.0,1919.0,-3
S007,Male_011_v,40.0,2.0,8021.0,blue,Fiction,3,4,3,1.0,1.0,2248.0,-3
S007,Male_021_h,41.0,2.0,5078.0,blue,Fiction,5,5,6,1.0,1.0,2871.0,0
S007,Male_001_v,42.0,2.0,5038.0,red,Reality,0,0,0,1.0,1.0,4114.0,-3
S007,Opposite-sex_couple_014_h,43.0,2.0,8354.0,blue,Fiction,6,5,5,1.0,1.0,2004.0,3
S007,Opposite-sex_couple_033_v,44.0,2.0,7816.0,blue,Fiction,4,4,5,1.0,1.0,3433.0,1
S007,Opposite-sex_couple_023_h,45.0,2.0,9576.0,blue,Fiction,4,5,5,1.0,1.0,2823.0,3
S007,Male_025_v,46.0,2.0,12713.0,red,Reality,0,1,0,1.0,1.0,2901.0,2
S007,Opposite-sex_couple_002_h,47.0,2.0,6734.0,blue,Fiction,3,3,3,1.0,1.0,2526.0,3
S007,Male_002_v,48.0,2.0,6593.0,blue,Fiction,4,4,4,1.0,1.0,1115.0,3
S007,Opposite-sex_couple_022_v,49.0,2.0,7580.0,blue,Fiction,2,3,2,1.0,1.0,1851.0,3
S007,Opposite-sex_couple_017_v,50.0,2.0,6083.0,red,Reality,4,4,4,1.0,1.0,4591.0,-1
S010,Male_025_v,1.0,2.0,12751.0,blue,Reality,1,1,2,1.0,1.0,1355.0,1
S010,Male_018_v,2.0,2.0,9350.0,red,Fiction,2,1,1,1.0,1.0,1376.0,1
S010,Male_023_v,3.0,2.0,8667.0,blue,Reality,3,2,2,1.0,1.0,1146.0,3
S010,Male_004_v,4.0,2.0,7103.0,red,Fiction,1,2,2,1.0,1.0,980.0,3
S010,Male_002_v,5.0,2.0,7508.0,blue,Reality,3,2,2,1.0,1.0,1300.0,2
S010,Opposite-sex_couple_048_h,6.0,2.0,10850.0,blue,Reality,3,2,3,1.0,1.0,1583.0,-2
S010,Male_012_h,7.0,2.0,6026.0,red,Fiction,1,0,0,1.0,1.0,2373.0,2
S010,Male_006_v,8.0,2.0,8093.0,blue,Reality,0,1,0,1.0,1.0,937.0,3
S010,Opposite-sex_couple_014_h,9.0,2.0,10176.0,red,Fiction,1,2,1,1.0,1.0,1031.0,3
S010,Male_022_v,10.0,2.0,16473.0,red,Fiction,1,0,0,1.0,1.0,1594.0,2
S010,Male_020_v,11.0,2.0,11228.0,red,Fiction,1,2,2,1.0,1.0,1417.0,0
S010,Opposite-sex_couple_024_h,12.0,2.0,4980.0,blue,Reality,3,2,1,1.0,1.0,1267.0,2
S010,Opposite-sex_couple_042_h,13.0,2.0,9378.0,blue,Reality,2,3,4,1.0,1.0,1367.0,0
S010,Male_024_h,14.0,2.0,4808.0,blue,Reality,2,1,1,1.0,1.0,8469.0,0
S010,Male_001_v,15.0,2.0,7127.0,blue,Reality,0,1,0,1.0,1.0,966.0,3
S010,Male_009_v,16.0,2.0,4980.0,red,Fiction,3,2,2,1.0,1.0,1195.0,3
S010,Male_017_v,17.0,2.0,6096.0,blue,Reality,1,1,1,1.0,1.0,1304.0,3
S010,Opposite-sex_couple_011_h,18.0,2.0,6474.0,red,Fiction,3,2,3,1.0,1.0,924.0,3
S010,Male_021_h,19.0,2.0,5980.0,blue,Reality,2,1,1,1.0,1.0,969.0,2
S010,Opposite-sex_couple_018_h,20.0,2.0,9798.0,blue,Reality,1,1,1,1.0,1.0,1159.0,3
S010,Male_015_v,21.0,2.0,6634.0,red,Fiction,1,1,0,1.0,1.0,1186.0,3
S010,Male_007_h,22.0,2.0,19744.0,red,Fiction,2,1,1,1.0,1.0,900.0,3
S010,Opposite-sex_couple_016_v,23.0,2.0,6547.0,blue,Reality,3,2,4,1.0,1.0,1279.0,2
S010,Male_005_v,24.0,2.0,6130.0,blue,Reality,1,0,0,1.0,1.0,1227.0,-1
S010,Opposite-sex_couple_025_h,25.0,2.0,27213.0,blue,Reality,1,2,1,1.0,1.0,2539.0,2
S010,Opposite-sex_couple_005_h,26.0,2.0,12643.0,red,Fiction,1,2,2,1.0,1.0,1311.0,3
S010,Opposite-sex_couple_022_v,27.0,2.0,11949.0,blue,Reality,4,3,4,1.0,1.0,969.0,2
S010,Opposite-sex_couple_008_h,28.0,2.0,42091.0,red,Fiction,3,2,1,1.0,1.0,907.0,2
S010,Opposite-sex_couple_035_h,29.0,2.0,12787.0,blue,Reality,2,4,4,1.0,1.0,1828.0,-2
S010,Opposite-sex_couple_047_v,30.0,2.0,3959.0,red,Fiction,3,2,3,1.0,1.0,1152.0,-1
S010,Opposite-sex_couple_017_v,31.0,2.0,3506.0,blue,Reality,4,3,3,1.0,1.0,1077.0,1
S010,Opposite-sex_couple_002_h,32.0,2.0,4172.0,blue,Reality,4,2,2,1.0,1.0,1091.0,2
S010,Opposite-sex_couple_019_v,33.0,2.0,6330.0,red,Fiction,2,2,1,1.0,1.0,1192.0,-2
S010,Male_011_v,34.0,2.0,6473.0,blue,Reality,2,3,1,1.0,1.0,2100.0,-3
S010,Male_003_v,35.0,2.0,9159.0,red,Fiction,2,1,2,1.0,1.0,1022.0,3
S010,Male_013_v,36.0,2.0,4277.0,red,Fiction,1,0,2,1.0,1.0,1304.0,1
S010,Opposite-sex_couple_001_v,37.0,2.0,4412.0,red,Fiction,3,2,2,1.0,1.0,3182.0,-1
S010,Male_010_v,38.0,2.0,6423.0,red,Fiction,2,1,1,1.0,1.0,1951.0,3
S010,Male_019_h,39.0,2.0,13130.0,blue,Reality,1,2,1,1.0,1.0,1117.0,3
S010,Opposite-sex_couple_007_h,40.0,2.0,4581.0,red,Fiction,4,2,2,1.0,1.0,1090.0,3
S010,Male_008_v,41.0,2.0,9837.0,blue,Reality,0,1,0,1.0,1.0,1680.0,2
S010,Male_014_v,42.0,2.0,7332.0,red,Fiction,1,1,0,1.0,1.0,1451.0,3
S010,Opposite-sex_couple_015_h,43.0,2.0,3456.0,blue,Reality,3,2,2,1.0,1.0,2009.0,0
S010,Opposite-sex_couple_012_h,44.0,2.0,8672.0,blue,Reality,4,3,2,1.0,1.0,1362.0,3
S010,Opposite-sex_couple_020_h,45.0,2.0,7961.0,blue,Reality,3,3,2,1.0,1.0,1604.0,-1
S010,Opposite-sex_couple_023_h,46.0,2.0,5042.0,red,Fiction,4,3,4,1.0,1.0,1156.0,3
S010,Male_016_v,47.0,2.0,4582.0,blue,Reality,3,1,2,1.0,1.0,1220.0,2
S010,Opposite-sex_couple_033_v,48.0,2.0,6466.0,red,Fiction,2,3,3,1.0,1.0,943.0,2
S010,Opposite-sex_couple_013_h,49.0,2.0,3820.0,red,Fiction,1,2,1,1.0,1.0,1565.0,3
S010,Opposite-sex_couple_009_h,50.0,2.0,4962.0,red,Fiction,4,3,5,1.0,1.0,2131.0,-2
S014,Female_012_v,1.0,2.0,9228.0,blue,Reality,4,4,4,1.0,1.0,2248.0,-1
S014,Opposite-sex_couple_048_h,2.0,2.0,5173.0,red,Fiction,3,4,3,1.0,1.0,12265.0,1
S014,Female_007_v,3.0,2.0,5549.0,blue,Reality,4,3,4,1.0,1.0,2706.0,-1
S014,Opposite-sex_couple_016_v,4.0,2.0,4919.0,red,Fiction,5,4,5,1.0,1.0,3081.0,3
S014,Female_017_v,5.0,2.0,5080.0,blue,Reality,6,5,6,1.0,1.0,4608.0,-1
S014,Opposite-sex_couple_042_h,6.0,2.0,4384.0,red,Fiction,6,6,5,1.0,1.0,2865.0,-1
S014,Opposite-sex_couple_009_h,7.0,2.0,6302.0,red,Fiction,4,5,4,1.0,1.0,2353.0,-2
S014,Opposite-sex_couple_047_v,8.0,2.0,5195.0,red,Fiction,3,4,3,1.0,1.0,3749.0,2
S014,Female_006_v,9.0,2.0,5264.0,red,Fiction,3,4,4,1.0,1.0,2027.0,-2
S014,Female_010_h,10.0,2.0,5186.0,blue,Reality,5,4,3,1.0,1.0,2024.0,-2
S014,Opposite-sex_couple_007_h,11.0,2.0,4950.0,red,Fiction,4,5,4,1.0,1.0,2822.0,1
S014,Opposite-sex_couple_011_h,12.0,2.0,5450.0,blue,Reality,3,4,5,1.0,1.0,3295.0,1
S014,Female_011_h,13.0,2.0,4823.0,blue,Reality,4,5,6,1.0,1.0,3138.0,1
S014,Opposite-sex_couple_018_h,14.0,2.0,5326.0,blue,Reality,4,4,4,1.0,1.0,13669.0,-1
S014,Opposite-sex_couple_015_h,15.0,2.0,4751.0,blue,Reality,3,5,4,1.0,1.0,2468.0,2
S014,Female_022_h,16.0,2.0,4375.0,red,Fiction,5,4,5,1.0,1.0,4407.0,-3
S014,Female_013_h,17.0,2.0,4897.0,red,Fiction,5,6,5,1.0,1.0,2684.0,1
S014,Female_016_h,18.0,2.0,4367.0,blue,Reality,3,2,3,1.0,1.0,2749.0,-2
S014,Opposite-sex_couple_005_h,19.0,2.0,6057.0,red,Fiction,4,5,4,1.0,1.0,28009.0,-2
S014,Female_015_v,20.0,2.0,5048.0,red,Fiction,3,4,5,1.0,1.0,2191.0,-1
S014,Opposite-sex_couple_017_v,21.0,2.0,4958.0,red,Fiction,5,4,3,1.0,1.0,2401.0,1
S014,Female_019_h,22.0,2.0,9688.0,red,Fiction,4,3,4,1.0,1.0,2369.0,-1
S014,Opposite-sex_couple_014_h,23.0,2.0,6162.0,red,Fiction,4,3,4,1.0,1.0,3242.0,3
S014,Opposite-sex_couple_033_v,24.0,2.0,7797.0,blue,Reality,4,3,4,1.0,1.0,2698.0,1
S014,Female_023_h,25.0,2.0,4728.0,red,Fiction,4,5,4,1.0,1.0,2703.0,1
S014,Female_014_v,26.0,2.0,5651.0,blue,Reality,4,5,4,1.0,1.0,2096.0,-1
S014,Opposite-sex_couple_008_h,27.0,2.0,4584.0,blue,Reality,4,5,4,1.0,1.0,3020.0,-1
S014,Opposite-sex_couple_001_v,28.0,2.0,5961.0,blue,Reality,4,5,4,1.0,1.0,2571.0,-2
S014,Opposite-sex_couple_023_h,29.0,2.0,5691.0,blue,Reality,4,5,4,1.0,1.0,2174.0,1
S014,Opposite-sex_couple_019_v,30.0,2.0,7325.0,blue,Reality,5,4,5,1.0,1.0,2688.0,1
S014,Opposite-sex_couple_002_h,31.0,2.0,5243.0,red,Fiction,4,5,4,1.0,1.0,2370.0,2
S014,Female_021_h,32.0,2.0,4887.0,red,Fiction,5,6,5,1.0,1.0,2295.0,-1
S014,Opposite-sex_couple_035_h,33.0,2.0,4529.0,red,Fiction,6,5,5,1.0,1.0,8400.0,-2
S014,Female_020_v,34.0,2.0,5080.0,red,Fiction,5,5,4,1.0,1.0,2435.0,1
S014,Opposite-sex_couple_024_h,35.0,2.0,5558.0,red,Fiction,5,6,5,1.0,1.0,2862.0,1
S014,Female_001_h,36.0,2.0,6023.0,blue,Reality,5,4,5,1.0,1.0,15226.0,-1
S014,Female_024_v,37.0,2.0,4045.0,blue,Reality,2,3,2,1.0,1.0,2489.0,-2
S014,Female_009_h,38.0,2.0,4527.0,red,Fiction,4,5,5,1.0,1.0,2013.0,-3
S014,Female_018_h,39.0,2.0,5197.0,blue,Reality,5,4,4,1.0,1.0,2126.0,-1
S014,Female_005_v,40.0,2.0,14007.0,blue,Reality,5,4,5,1.0,1.0,2364.0,-1
S014,Female_004_v,41.0,2.0,6856.0,blue,Reality,5,4,5,1.0,1.0,2013.0,-1
S014,Opposite-sex_couple_020_h,42.0,2.0,5347.0,blue,Reality,5,4,5,1.0,1.0,2280.0,1
S014,Female_025_h,43.0,2.0,5444.0,red,Fiction,5,4,5,1.0,1.0,2584.0,-1
S014,Female_003_v,44.0,2.0,4851.0,blue,Reality,5,4,5,1.0,1.0,2419.0,-2
S014,Female_002_h,45.0,2.0,5334.0,red,Fiction,5,4,5,1.0,1.0,13991.0,-3
S014,Opposite-sex_couple_013_h,46.0,2.0,9138.0,blue,Reality,3,2,3,1.0,1.0,2126.0,1
S014,Opposite-sex_couple_012_h,47.0,2.0,22462.0,blue,Reality,5,5,4,1.0,1.0,2680.0,1
S014,Female_008_v,48.0,2.0,6012.0,red,Fiction,5,4,5,1.0,1.0,2721.0,-3
S014,Opposite-sex_couple_022_v,49.0,2.0,7529.0,blue,Reality,4,3,4,1.0,1.0,2005.0,1
S014,Opposite-sex_couple_025_h,50.0,2.0,4401.0,blue,Reality,6,6,6,1.0,1.0,3038.0,-3
S016,Female_016_h,1.0,2.0,6223.0,blue,Reality,1,2,3,1.0,1.0,1763.0,-3
S016,Female_004_v,2.0,2.0,5619.0,blue,Reality,2,3,3,1.0,1.0,1234.0,2
S016,Opposite-sex_couple_033_v,3.0,2.0,6082.0,blue,Reality,1,2,3,1.0,1.0,1511.0,1
S016,Opposite-sex_couple_012_h,4.0,2.0,6875.0,green,Fiction,1,2,3,1.0,1.0,1576.0,2
S016,Opposite-sex_couple_018_h,5.0,2.0,5365.0,green,Fiction,3,3,4,1.0,1.0,1555.0,1
S016,Female_018_h,6.0,2.0,6927.0,blue,Reality,3,2,4,1.0,1.0,1662.0,2
S016,Female_024_v,7.0,2.0,6234.0,blue,Reality,1,2,2,1.0,1.0,1369.0,-2
S016,Opposite-sex_couple_022_v,8.0,2.0,7443.0,blue,Reality,0,1,3,1.0,1.0,1481.0,2
S016,Opposite-sex_couple_015_h,9.0,2.0,5831.0,blue,Reality,1,1,2,1.0,1.0,1454.0,1
S016,Female_025_h,10.0,2.0,5136.0,green,Fiction,2,1,3,1.0,1.0,1488.0,-1
S016,Female_009_h,11.0,2.0,5873.0,blue,Reality,4,2,5,1.0,1.0,1186.0,2
S016,Opposite-sex_couple_002_h,12.0,2.0,4395.0,blue,Reality,1,2,2,1.0,1.0,1216.0,-1
S016,Opposite-sex_couple_025_h,13.0,2.0,4474.0,green,Fiction,2,3,2,1.0,1.0,1496.0,-1
S016,Female_012_v,14.0,2.0,4775.0,green,Fiction,2,3,3,1.0,1.0,1292.0,-1
S016,Opposite-sex_couple_042_h,15.0,2.0,4354.0,green,Fiction,0,0,2,1.0,1.0,1988.0,3
S016,Opposite-sex_couple_035_h,16.0,2.0,5100.0,blue,Reality,0,1,3,1.0,1.0,1527.0,2
S016,Female_014_v,17.0,2.0,7161.0,green,Fiction,1,2,3,1.0,1.0,1501.0,2
S016,Female_010_h,18.0,2.0,5664.0,blue,Reality,1,2,1,1.0,1.0,1314.0,1
S016,Opposite-sex_couple_016_v,19.0,2.0,4936.0,blue,Reality,1,1,2,1.0,1.0,2134.0,0
S016,Opposite-sex_couple_001_v,20.0,2.0,5621.0,blue,Reality,0,1,2,1.0,1.0,1943.0,1
S016,Female_011_h,21.0,2.0,5374.0,green,Fiction,0,1,1,1.0,1.0,1592.0,-2
S016,Female_006_v,22.0,2.0,5354.0,green,Fiction,3,3,1,1.0,1.0,1308.0,-2
S016,Opposite-sex_couple_047_v,23.0,2.0,5086.0,blue,Reality,0,0,2,1.0,1.0,1747.0,2
S016,Opposite-sex_couple_011_h,24.0,2.0,5358.0,blue,Reality,2,1,3,1.0,1.0,1622.0,1
S016,Female_015_v,25.0,2.0,4714.0,blue,Reality,2,1,4,1.0,1.0,2750.0,1
S016,Female_007_v,26.0,2.0,5197.0,blue,Reality,1,2,1,1.0,1.0,1478.0,1
S016,Opposite-sex_couple_024_h,27.0,2.0,5231.0,green,Fiction,4,3,4,1.0,1.0,1404.0,2
S016,Opposite-sex_couple_014_h,28.0,2.0,5843.0,green,Fiction,2,1,3,1.0,1.0,1479.0,-3
S016,Opposite-sex_couple_008_h,29.0,2.0,4672.0,green,Fiction,2,4,2,1.0,1.0,1277.0,3
S016,Opposite-sex_couple_023_h,30.0,2.0,4486.0,green,Fiction,1,2,1,1.0,1.0,1280.0,-3
S016,Opposite-sex_couple_020_h,31.0,2.0,5338.0,blue,Reality,2,4,4,1.0,1.0,1795.0,2
S016,Opposite-sex_couple_009_h,32.0,2.0,4328.0,blue,Reality,2,3,1,1.0,1.0,1328.0,-1
S016,Opposite-sex_couple_007_h,33.0,2.0,4928.0,blue,Reality,1,2,2,1.0,1.0,1313.0,3
S016,Female_002_h,34.0,2.0,5193.0,green,Fiction,4,4,5,1.0,1.0,1840.0,-2
S016,Female_019_h,35.0,2.0,5100.0,green,Fiction,4,3,5,1.0,1.0,2184.0,-1
S016,Female_020_v,36.0,2.0,5611.0,green,Fiction,2,3,3,1.0,1.0,1590.0,2
S016,Female_021_h,37.0,2.0,6326.0,blue,Reality,4,3,5,1.0,1.0,1245.0,3
S016,Opposite-sex_couple_005_h,38.0,2.0,5823.0,blue,Reality,4,3,6,1.0,1.0,1413.0,3
S016,Female_005_v,39.0,2.0,5163.0,blue,Reality,0,3,1,1.0,1.0,1762.0,3
S016,Female_023_h,40.0,2.0,4746.0,green,Fiction,2,1,3,1.0,1.0,1580.0,-2
S016,Opposite-sex_couple_013_h,41.0,2.0,4640.0,green,Fiction,0,1,2,1.0,1.0,1506.0,3
S016,Opposite-sex_couple_048_h,42.0,2.0,4925.0,green,Fiction,0,1,1,1.0,1.0,1309.0,1
S016,Female_001_h,43.0,2.0,3890.0,blue,Reality,1,1,4,1.0,1.0,1271.0,2
S016,Female_022_h,44.0,2.0,5849.0,blue,Reality,5,4,6,1.0,1.0,1585.0,-2
S016,Female_003_v,45.0,2.0,4472.0,blue,Reality,4,4,5,1.0,1.0,1220.0,2
S016,Female_013_h,46.0,2.0,6623.0,green,Fiction,1,2,1,1.0,1.0,1344.0,-3
S016,Opposite-sex_couple_019_v,47.0,2.0,4931.0,green,Fiction,0,0,5,1.0,1.0,1757.0,-2
S016,Opposite-sex_couple_017_v,48.0,2.0,4760.0,green,Fiction,1,3,2,1.0,1.0,1329.0,1
S016,Female_008_v,49.0,2.0,4779.0,green,Fiction,1,2,3,1.0,1.0,1406.0,-3
S016,Female_017_v,50.0,2.0,4801.0,green,Fiction,3,2,4,1.0,1.0,1331.0,1
S021,Female_020_v,1.0,2.0,5602.0,blue,Fiction,6,6,6,1.0,1.0,1279.0,3
S021,Opposite-sex_couple_047_v,2.0,2.0,6613.0,blue,Fiction,0,1,3,1.0,1.0,1537.0,3
S021,Opposite-sex_couple_015_h,3.0,2.0,7724.0,red,Reality,3,4,4,1.0,1.0,2463.0,2
S021,Opposite-sex_couple_018_h,4.0,2.0,4647.0,red,Reality,6,6,6,1.0,1.0,1504.0,3
S021,Opposite-sex_couple_020_h,5.0,2.0,7423.0,red,Reality,1,0,3,1.0,1.0,2564.0,2
S021,Female_017_v,6.0,2.0,7324.0,blue,Fiction,4,4,6,1.0,1.0,1420.0,2
S021,Female_004_v,7.0,2.0,6095.0,red,Reality,4,4,5,1.0,1.0,1474.0,3
S021,Female_013_h,8.0,2.0,5401.0,blue,Fiction,4,4,4,1.0,1.0,2730.0,2
S021,Female_022_h,9.0,2.0,3584.0,blue,Fiction,6,6,6,1.0,1.0,1585.0,2
S021,Opposite-sex_couple_033_v,10.0,2.0,5837.0,blue,Fiction,1,2,3,1.0,1.0,1323.0,3
S021,Opposite-sex_couple_002_h,11.0,2.0,2659.0,red,Reality,3,3,3,1.0,1.0,1314.0,3
S021,Opposite-sex_couple_017_v,12.0,2.0,3700.0,red,Reality,4,4,4,1.0,1.0,1377.0,3
S021,Female_019_h,13.0,2.0,2896.0,red,Reality,5,5,6,1.0,1.0,1200.0,3
S021,Female_002_h,14.0,2.0,4556.0,red,Reality,4,4,4,1.0,1.0,1504.0,3
S021,Female_018_h,15.0,2.0,4671.0,red,Reality,5,6,6,1.0,1.0,2120.0,3
S021,Female_003_v,16.0,2.0,3138.0,blue,Fiction,4,4,4,1.0,1.0,1453.0,3
S021,Female_007_v,17.0,2.0,5385.0,blue,Fiction,1,3,4,1.0,1.0,1170.0,-2
S021,Female_024_v,18.0,2.0,3831.0,red,Reality,4,4,5,1.0,1.0,1920.0,-1
S021,Female_015_v,19.0,2.0,4559.0,blue,Fiction,5,6,6,1.0,1.0,2853.0,-1
S021,Opposite-sex_couple_035_h,20.0,2.0,4567.0,red,Reality,0,1,3,1.0,1.0,2384.0,0
S021,Female_023_h,21.0,2.0,3391.0,blue,Fiction,3,3,3,1.0,1.0,1261.0,3
S021,Female_021_h,22.0,2.0,4990.0,red,Reality,6,6,6,1.0,1.0,1426.0,3
S021,Female_001_h,23.0,2.0,4566.0,blue,Fiction,3,3,3,1.0,1.0,1722.0,-1
S021,Opposite-sex_couple_024_h,24.0,2.0,4018.0,blue,Fiction,6,6,6,1.0,1.0,1418.0,3
S021,Opposite-sex_couple_019_v,25.0,2.0,4031.0,red,Reality,0,0,3,1.0,1.0,1427.0,2
S021,Opposite-sex_couple_022_v,26.0,2.0,3118.0,red,Reality,0,0,3,1.0,1.0,2418.0,1
S021,Opposite-sex_couple_008_h,27.0,2.0,3576.0,red,Reality,4,4,5,1.0,1.0,1343.0,3
S021,Opposite-sex_couple_013_h,28.0,2.0,3242.0,blue,Fiction,0,0,0,1.0,1.0,1261.0,3
S021,Female_008_v,29.0,2.0,3295.0,blue,Fiction,4,5,5,1.0,1.0,1044.0,3
S021,Opposite-sex_couple_005_h,30.0,2.0,5291.0,red,Reality,5,6,6,1.0,1.0,1907.0,2
S021,Female_014_v,31.0,2.0,4396.0,red,Reality,4,4,4,1.0,1.0,1439.0,3
S021,Opposite-sex_couple_014_h,32.0,2.0,2965.0,blue,Fiction,6,6,6,1.0,1.0,1494.0,3
S021,Opposite-sex_couple_023_h,33.0,2.0,5446.0,blue,Fiction,2,1,2,1.0,1.0,1282.0,-3
S021,Female_025_h,34.0,2.0,4010.0,red,Reality,6,6,6,1.0,1.0,1580.0,3
S021,Female_009_h,35.0,2.0,6412.0,red,Reality,3,3,4,1.0,1.0,2204.0,1
S021,Opposite-sex_couple_011_h,36.0,2.0,4321.0,red,Reality,1,1,1,1.0,1.0,1237.0,3
S021,Female_012_v,37.0,2.0,4568.0,red,Reality,3,3,4,1.0,1.0,1781.0,2
S021,Female_011_h,38.0,2.0,4371.0,red,Reality,5,5,6,1.0,1.0,2266.0,-2
S021,Female_005_v,39.0,2.0,5761.0,blue,Fiction,5,5,6,1.0,1.0,2718.0,3
S021,Opposite-sex_couple_009_h,40.0,2.0,5508.0,red,Reality,4,4,5,1.0,1.0,1243.0,3
S021,Female_016_h,41.0,2.0,4345.0,red,Reality,6,6,6,1.0,1.0,2368.0,-2
S021,Female_006_v,42.0,2.0,2908.0,blue,Fiction,5,5,6,1.0,1.0,1366.0,-1
S021,Opposite-sex_couple_016_v,43.0,2.0,3303.0,blue,Fiction,1,1,3,1.0,1.0,1402.0,0
S021,Female_010_h,44.0,2.0,2571.0,red,Reality,5,5,6,1.0,1.0,1142.0,3
S021,Opposite-sex_couple_048_h,45.0,2.0,3638.0,blue,Fiction,2,2,3,1.0,1.0,1752.0,0
S021,Opposite-sex_couple_042_h,46.0,2.0,3365.0,blue,Fiction,1,1,4,1.0,1.0,1510.0,-3
S021,Opposite-sex_couple_012_h,47.0,2.0,2789.0,blue,Fiction,5,5,6,1.0,1.0,1288.0,3
S021,Opposite-sex_couple_025_h,48.0,2.0,2467.0,blue,Fiction,6,6,6,1.0,1.0,1687.0,3
S021,Opposite-sex_couple_001_v,49.0,2.0,3768.0,red,Reality,1,1,3,1.0,1.0,1586.0,3
S021,Opposite-sex_couple_007_h,50.0,2.0,3294.0,blue,Fiction,0,0,3,1.0,1.0,1396.0,0
