Participant,Stimulus,Trial_Order_Phase1,Trial_Duration_Phase1,Rating_RT_Phase1,Cue_Color,Condition,Arousal,Enticing,Valence,Trial_Order_Phase2,Trial_Duration_Phase2,Rating_RT_Phase2,Realness
S040,Opposite-sex_couple_016_v,1.0,2.0,11077.0,blue,Fiction,2,3,3,1.0,1.0,1305.0,2
S040,Opposite-sex_couple_047_v,2.0,2.0,11000.0,blue,Fiction,0,1,3,1.0,1.0,1504.0,1
S040,Opposite-sex_couple_018_h,3.0,2.0,8031.0,blue,Fiction,1,1,2,1.0,1.0,1804.0,3
S040,Opposite-sex_couple_035_h,4.0,2.0,7394.0,green,Reality,1,3,3,1.0,1.0,2679.0,-2
S040,Male_010_v,5.0,2.0,5805.0,green,Reality,2,3,4,1.0,1.0,2166.0,2
S040,Male_009_v,6.0,2.0,7676.0,blue,Fiction,1,2,3,1.0,1.0,1444.0,0
S040,Male_021_h,7.0,2.0,5843.0,blue,Fiction,1,2,3,1.0,1.0,1078.0,1
S040,Male_008_v,8.0,2.0,11791.0,blue,Fiction,2,4,3,1.0,1.0,2525.0,1
S040,Male_018_v,9.0,2.0,6254.0,green,Reality,1,2,3,1.0,1.0,1924.0,-2
S040,Male_014_v,10.0,2.0,5573.0,green,Reality,4,4,4,1.0,1.0,1748.0,-2
S040,Male_015_v,11.0,2.0,7095.0,green,Reality,3,3,3,1.0,1.0,2477.0,-1
S040,Male_013_v,12.0,2.0,4534.0,blue,Fiction,2,2,3,1.0,1.0,1690.0,0
S040,Male_016_v,13.0,2.0,5336.0,green,Reality,4,4,4,1.0,1.0,3040.0,0
S040,Opposite-sex_couple_013_h,14.0,2.0,8933.0,green,Reality,1,1,2,1.0,1.0,2183.0,1
S040,Opposite-sex_couple_025_h,15.0,2.0,7348.0,green,Reality,5,5,4,1.0,1.0,1881.0,2
S040,Male_007_h,16.0,2.0,4749.0,green,Reality,3,3,3,1.0,1.0,1297.0,3
S040,Male_025_v,17.0,2.0,6829.0,green,Reality,0,1,3,1.0,1.0,1984.0,1
S040,Male_004_v,18.0,2.0,5824.0,blue,Fiction,2,2,3,1.0,1.0,1301.0,0
S040,Opposite-sex_couple_007_h,19.0,2.0,6861.0,green,Reality,1,2,3,1.0,1.0,1621.0,1
S040,Male_012_h,20.0,2.0,4787.0,green,Reality,3,3,3,1.0,1.0,1367.0,2
S040,Opposite-sex_couple_005_h,21.0,2.0,5294.0,blue,Fiction,5,4,4,1.0,1.0,2672.0,2
S040,Male_001_v,22.0,2.0,4210.0,green,Reality,0,0,1,1.0,1.0,1802.0,2
S040,Male_005_v,23.0,2.0,8099.0,blue,Fiction,0,1,2,1.0,1.0,1442.0,-3
S040,Opposite-sex_couple_001_v,24.0,2.0,5589.0,green,Reality,1,2,3,1.0,1.0,1855.0,-3
S040,Opposite-sex_couple_014_h,25.0,2.0,6332.0,blue,Fiction,2,2,3,1.0,1.0,2345.0,1
S040,Opposite-sex_couple_019_v,26.0,2.0,5136.0,blue,Fiction,0,0,3,1.0,1.0,1289.0,-2
S040,Opposite-sex_couple_048_h,27.0,2.0,5955.0,green,Reality,4,4,4,1.0,1.0,1490.0,1
S040,Male_019_h,28.0,2.0,7698.0,blue,Fiction,1,2,3,1.0,1.0,1502.0,2
S040,Opposite-sex_couple_020_h,29.0,2.0,6317.0,blue,Fiction,3,3,3,1.0,1.0,1303.0,-3
S040,Male_002_v,30.0,2.0,4242.0,blue,Fiction,3,3,3,1.0,1.0,1395.0,3
S040,Opposite-sex_couple_017_v,31.0,2.0,5031.0,green,Reality,3,4,4,1.0,1.0,1936.0,1
S040,Opposite-sex_couple_042_h,32.0,2.0,4577.0,green,Reality,1,1,3,1.0,1.0,1452.0,-1
S040,Male_017_v,33.0,2.0,4855.0,green,Reality,0,0,2,1.0,1.0,2434.0,-3
S040,Male_011_v,34.0,2.0,4522.0,blue,Fiction,2,2,3,1.0,1.0,1299.0,-2
S040,Male_022_v,35.0,2.0,5463.0,green,Reality,3,4,3,1.0,1.0,1328.0,-3
S040,Opposite-sex_couple_022_v,36.0,2.0,4998.0,green,Reality,1,2,3,1.0,1.0,1181.0,1
S040,Male_023_v,37.0,2.0,5682.0,green,Reality,1,2,3,1.0,1.0,2061.0,2
S040,Opposite-sex_couple_012_h,38.0,2.0,5593.0,blue,Fiction,2,2,3,1.0,1.0,2403.0,1
S040,Opposite-sex_couple_002_h,39.0,2.0,4491.0,green,Reality,4,5,4,1.0,1.0,1360.0,-1
S040,Male_020_v,40.0,2.0,4540.0,blue,Fiction,1,2,3,1.0,1.0,1739.0,-1
S040,Opposite-sex_couple_024_h,41.0,2.0,3892.0,green,Reality,4,4,4,1.0,1.0,2991.0,1
S040,Opposite-sex_couple_023_h,42.0,2.0,6469.0,blue,Fiction,1,2,3,1.0,1.0,1245.0,-3
S040,Opposite-sex_couple_015_h,43.0,2.0,3877.0,blue,Fiction,3,4,3,1.0,1.0,1915.0,-1
S040,Opposite-sex_couple_033_v,44.0,2.0,5500.0,blue,Fiction,3,4,4,1.0,1.0,1397.0,1
S040,Male_024_h,45.0,2.0,5972.0,green,Reality,2,2,3,1.0,1.0,1676.0,-1
S040,Opposite-sex_couple_009_h,46.0,2.0,6153.0,blue,Fiction,2,2,3,1.0,1.0,1759.0,2
S040,Opposite-sex_couple_011_h,47.0,2.0,4471.0,green,Reality,1,2,3,1.0,1.0,1666.0,1
S040,Opposite-sex_couple_008_h,48.0,2.0,8959.0,green,Reality,3,4,4,1.0,1.0,1105.0,2
S040,Male_006_v,49.0,2.0,4947.0,blue,Fiction,0,0,3,1.0,1.0,1177.0,2
S040,Male_003_v,50.0,2.0,5766.0,blue,Fiction,1,1,3,1.0,1.0,2110.0,1
S031,Opposite-sex_couple_017_v,1.0,2.0,15809.0,green,Reality,4,5,4,1.0,1.0,2712.0,2
S031,Opposite-sex_couple_018_h,2.0,2.0,14160.0,green,Reality,5,5,5,1.0,1.0,1981.0,2
S031,Male_001_v,3.0,2.0,7836.0,green,Reality,0,0,0,1.0,1.0,3223.0,-2
S031,Male_009_v,4.0,2.0,12350.0,green,Reality,3,3,3,1.0,1.0,1414.0,3
S031,Male_003_v,5.0,2.0,12346.0,green,Reality,3,5,3,1.0,1.0,4444.0,3
S031,Opposite-sex_couple_022_v,6.0,2.0,7984.0,green,Reality,5,5,4,1.0,1.0,2573.0,-3
S031,Opposite-sex_couple_012_h,7.0,2.0,8017.0,red,Fiction,6,6,6,1.0,1.0,5719.0,3
S031,Male_013_v,8.0,2.0,12229.0,green,Reality,1,1,2,1.0,1.0,3971.0,0
S031,Opposite-sex_couple_023_h,9.0,2.0,5249.0,red,Fiction,5,5,5,1.0,1.0,4183.0,3
S031,Male_015_v,10.0,2.0,7956.0,red,Fiction,1,1,1,1.0,1.0,1562.0,3
S031,Male_011_v,11.0,2.0,4050.0,red,Fiction,0,0,0,1.0,1.0,2553.0,-3
S031,Male_007_h,12.0,2.0,5621.0,red,Fiction,0,0,0,1.0,1.0,3926.0,1
S031,Opposite-sex_couple_047_v,13.0,2.0,7160.0,green,Reality,3,3,2,1.0,1.0,1798.0,3
S031,Opposite-sex_couple_009_h,14.0,2.0,4566.0,green,Reality,5,5,5,1.0,1.0,1681.0,2
S031,Opposite-sex_couple_005_h,15.0,2.0,5262.0,red,Fiction,6,6,6,1.0,1.0,4100.0,2
S031,Opposite-sex_couple_042_h,16.0,2.0,4454.0,red,Fiction,4,4,6,1.0,1.0,2045.0,2
S031,Opposite-sex_couple_013_h,17.0,2.0,4407.0,green,Reality,0,0,0,1.0,1.0,1321.0,-3
S031,Male_012_h,18.0,2.0,5885.0,green,Reality,3,5,4,1.0,1.0,2164.0,3
S031,Opposite-sex_couple_048_h,19.0,2.0,4983.0,green,Reality,5,5,4,1.0,1.0,7768.0,0
S031,Opposite-sex_couple_014_h,20.0,2.0,7553.0,green,Reality,5,6,5,1.0,1.0,4069.0,0
S031,Opposite-sex_couple_016_v,21.0,2.0,6148.0,green,Reality,3,5,4,1.0,1.0,1663.0,2
S031,Opposite-sex_couple_035_h,22.0,2.0,6911.0,red,Fiction,5,5,5,1.0,1.0,5599.0,3
S031,Male_019_h,23.0,2.0,5186.0,green,Reality,0,0,0,1.0,1.0,2751.0,3
S031,Male_021_h,24.0,2.0,5954.0,green,Reality,2,5,4,1.0,1.0,2305.0,-3
S031,Male_018_v,25.0,2.0,14398.0,green,Reality,0,1,3,1.0,1.0,3252.0,0
S031,Male_016_v,26.0,2.0,6674.0,red,Fiction,0,0,0,1.0,1.0,1796.0,3
S031,Opposite-sex_couple_024_h,27.0,2.0,7333.0,red,Fiction,3,5,5,1.0,1.0,3128.0,2
S031,Male_006_v,28.0,2.0,4641.0,red,Fiction,0,0,0,1.0,1.0,3583.0,-2
S031,Opposite-sex_couple_020_h,29.0,2.0,5337.0,red,Fiction,5,5,5,1.0,1.0,2373.0,2
S031,Opposite-sex_couple_019_v,30.0,2.0,11878.0,green,Reality,2,6,6,1.0,1.0,1863.0,3
S031,Male_025_v,31.0,2.0,15292.0,red,Fiction,2,2,2,1.0,1.0,3178.0,-1
S031,Male_008_v,32.0,2.0,4284.0,green,Reality,0,0,0,1.0,1.0,2686.0,-3
S031,Male_004_v,33.0,2.0,8383.0,green,Reality,1,1,1,1.0,1.0,1990.0,3
S031,Male_020_v,34.0,2.0,9490.0,green,Reality,3,3,3,1.0,1.0,1955.0,-3
S031,Opposite-sex_couple_008_h,35.0,2.0,4946.0,green,Reality,5,5,5,1.0,1.0,2337.0,2
S031,Opposite-sex_couple_002_h,36.0,2.0,4055.0,red,Fiction,6,6,6,1.0,1.0,1738.0,2
S031,Male_022_v,37.0,2.0,4226.0,red,Fiction,0,0,0,1.0,1.0,1698.0,-3
S031,Male_005_v,38.0,2.0,4602.0,red,Fiction,0,0,0,1.0,1.0,1755.0,-3
S031,Opposite-sex_couple_025_h,39.0,2.0,4328.0,green,Reality,6,6,6,1.0,1.0,1632.0,3
S031,Male_010_v,40.0,2.0,11538.0,green,Reality,0,0,3,1.0,1.0,2536.0,2
S031,Male_017_v,41.0,2.0,3978.0,red,Fiction,0,0,0,1.0,1.0,2653.0,2
S031,Opposite-sex_couple_033_v,42.0,2.0,4231.0,red,Fiction,5,5,5,1.0,1.0,1705.0,2
S031,Male_014_v,43.0,2.0,5160.0,red,Fiction,0,0,0,1.0,1.0,3051.0,-3
S031,Male_023_v,44.0,2.0,7731.0,red,Fiction,1,2,3,1.0,1.0,2269.0,-2
S031,Opposite-sex_couple_007_h,45.0,2.0,4721.0,green,Reality,5,5,4,1.0,1.0,1706.0,3
S031,Male_002_v,46.0,2.0,5668.0,green,Reality,0,0,0,1.0,1.0,2776.0,-1
S031,Opposite-sex_couple_015_h,47.0,2.0,5317.0,red,Fiction,4,4,4,1.0,1.0,1822.0,3
S031,Opposite-sex_couple_011_h,48.0,2.0,5303.0,red,Fiction,4,5,5,1.0,1.0,1467.0,3
S031,Opposite-sex_couple_001_v,49.0,2.0,5768.0,red,Fiction,5,5,5,1.0,1.0,5336.0,3
S031,Male_024_h,50.0,2.0,5910.0,red,Fiction,3,5,5,1.0,1.0,1936.0,3
S067,Female_014_v,1.0,2.0,13461.0,blue,Fiction,1,1,1,1.0,1.0,2552.0,-3
S067,Opposite-sex_couple_023_h,2.0,2.0,6215.0,green,Reality,5,5,5,1.0,1.0,1600.0,-3
S067,Female_018_h,3.0,2.0,5625.0,blue,Fiction,6,6,6,1.0,1.0,1172.0,3
S067,Opposite-sex_couple_013_h,4.0,2.0,4899.0,green,Reality,0,0,0,1.0,1.0,4068.0,3
S067,Opposite-sex_couple_024_h,5.0,2.0,8549.0,blue,Fiction,3,2,4,1.0,1.0,2183.0,2
S067,Opposite-sex_couple_011_h,6.0,2.0,5458.0,blue,Fiction,1,2,1,1.0,1.0,1796.0,-3
S067,Opposite-sex_couple_047_v,7.0,2.0,4986.0,green,Reality,0,0,0,1.0,1.0,1844.0,0
S067,Opposite-sex_couple_017_v,8.0,2.0,5814.0,blue,Fiction,2,2,2,1.0,1.0,1911.0,-3
S067,Opposite-sex_couple_014_h,9.0,2.0,6647.0,green,Reality,6,5,5,1.0,1.0,1253.0,3
S067,Female_007_v,10.0,2.0,7107.0,blue,Fiction,1,0,0,1.0,1.0,1522.0,-3
S067,Female_013_h,11.0,2.0,5023.0,green,Reality,6,6,6,1.0,1.0,1270.0,3
S067,Opposite-sex_couple_009_h,12.0,2.0,5189.0,green,Reality,6,6,6,1.0,1.0,1897.0,3
S067,Opposite-sex_couple_001_v,13.0,2.0,6430.0,green,Reality,0,0,0,1.0,1.0,3219.0,0
S067,Opposite-sex_couple_042_h,14.0,2.0,6373.0,blue,Fiction,0,0,0,1.0,1.0,1279.0,-3
S067,Opposite-sex_couple_025_h,15.0,2.0,5719.0,green,Reality,6,6,6,1.0,1.0,1873.0,3
S067,Female_011_h,16.0,2.0,7905.0,blue,Fiction,3,4,3,1.0,1.0,1563.0,-3
S067,Opposite-sex_couple_015_h,17.0,2.0,5191.0,green,Reality,1,1,0,1.0,1.0,1785.0,-3
S067,Opposite-sex_couple_048_h,18.0,2.0,6934.0,blue,Fiction,0,0,0,1.0,1.0,1819.0,0
S067,Female_016_h,19.0,2.0,7385.0,green,Reality,4,3,4,1.0,1.0,2072.0,1
S067,Female_012_v,20.0,2.0,5188.0,green,Reality,3,3,3,1.0,1.0,1591.0,-3
S067,Opposite-sex_couple_035_h,21.0,2.0,5390.0,blue,Fiction,0,0,0,1.0,1.0,1650.0,0
S067,Female_006_v,22.0,2.0,5421.0,green,Reality,6,6,6,1.0,1.0,1598.0,3
S067,Opposite-sex_couple_019_v,23.0,2.0,5698.0,green,Reality,0,2,2,1.0,1.0,1800.0,-3
S067,Female_021_h,24.0,2.0,4902.0,green,Reality,6,5,6,1.0,1.0,6927.0,0
S067,Opposite-sex_couple_033_v,25.0,2.0,4607.0,blue,Fiction,0,0,0,1.0,1.0,1271.0,3
S067,Opposite-sex_couple_022_v,26.0,2.0,4638.0,green,Reality,0,0,0,1.0,1.0,1677.0,0
S067,Female_003_v,27.0,2.0,5804.0,blue,Fiction,0,0,0,1.0,1.0,1192.0,-3
S067,Opposite-sex_couple_020_h,28.0,2.0,4626.0,blue,Fiction,2,2,2,1.0,1.0,1481.0,-3
S067,Female_001_h,29.0,2.0,6533.0,blue,Fiction,4,4,4,1.0,1.0,1370.0,3
S067,Opposite-sex_couple_002_h,30.0,2.0,5193.0,blue,Fiction,0,0,0,1.0,1.0,1800.0,-3
S067,Female_002_h,31.0,2.0,5153.0,blue,Fiction,6,6,6,1.0,1.0,2040.0,3
S067,Female_023_h,32.0,2.0,4568.0,green,Reality,4,4,4,1.0,1.0,1700.0,-3
S067,Female_020_v,33.0,2.0,5423.0,green,Reality,6,6,6,1.0,1.0,1675.0,3
S067,Opposite-sex_couple_005_h,34.0,2.0,4995.0,green,Reality,6,6,6,1.0,1.0,1379.0,3
S067,Opposite-sex_couple_007_h,35.0,2.0,4925.0,blue,Fiction,0,0,0,1.0,1.0,3959.0,0
S067,Female_010_h,36.0,2.0,7270.0,green,Reality,3,3,3,1.0,1.0,1625.0,-3
S067,Opposite-sex_couple_012_h,37.0,2.0,4927.0,green,Reality,5,6,6,1.0,1.0,1644.0,3
S067,Female_025_h,38.0,2.0,4850.0,green,Reality,3,3,3,1.0,1.0,1316.0,3
S067,Female_022_h,39.0,2.0,5796.0,green,Reality,6,6,6,1.0,1.0,1807.0,3
S067,Female_008_v,40.0,2.0,5357.0,blue,Fiction,6,6,6,1.0,1.0,1693.0,-3
S067,Female_019_h,41.0,2.0,6857.0,blue,Fiction,4,5,5,1.0,1.0,1783.0,0
S067,Opposite-sex_couple_018_h,42.0,2.0,5047.0,blue,Fiction,6,6,6,1.0,1.0,1865.0,3
S067,Female_017_v,43.0,2.0,4933.0,green,Reality,5,5,5,1.0,1.0,2345.0,0
S067,Opposite-sex_couple_016_v,44.0,2.0,4539.0,green,Reality,2,2,2,1.0,1.0,1909.0,2
S067,Opposite-sex_couple_008_h,45.0,2.0,4473.0,blue,Fiction,4,4,4,1.0,1.0,1144.0,-3
S067,Female_005_v,46.0,2.0,4826.0,blue,Fiction,2,2,2,1.0,1.0,1683.0,3
S067,Female_004_v,47.0,2.0,5796.0,green,Reality,1,1,1,1.0,1.0,1964.0,-3
S067,Female_009_h,48.0,2.0,4529.0,green,Reality,5,5,5,1.0,1.0,1784.0,3
S067,Female_015_v,49.0,2.0,4412.0,blue,Fiction,1,1,1,1.0,1.0,1471.0,-3
S067,Female_024_v,50.0,2.0,4970.0,blue,Fiction,1,1,1,1.0,1.0,1479.0,-3
S008,Opposite-sex_couple_019_v,1.0,2.0,34494.0,blue,Reality,2,4,5,1.0,1.0,4653.0,1
S008,Opposite-sex_couple_007_h,2.0,2.0,9310.0,green,Fiction,4,4,5,1.0,1.0,3226.0,-3
S008,Female_022_h,3.0,2.0,9815.0,green,Fiction,6,5,6,1.0,1.0,2351.0,-1
S008,Opposite-sex_couple_042_h,4.0,2.0,8643.0,green,Fiction,4,3,4,1.0,1.0,1898.0,2
S008,Female_004_v,5.0,2.0,8427.0,green,Fiction,4,3,5,1.0,1.0,1860.0,2
S008,Female_013_h,6.0,2.0,8463.0,blue,Reality,5,5,6,1.0,1.0,2900.0,-3
S008,Female_006_v,7.0,2.0,5852.0,green,Fiction,5,4,5,1.0,1.0,2225.0,2
S008,Opposite-sex_couple_008_h,8.0,2.0,4797.0,green,Fiction,6,5,6,1.0,1.0,2778.0,0
S008,Female_007_v,9.0,2.0,6270.0,blue,Reality,5,4,5,1.0,1.0,3138.0,2
S008,Female_023_h,10.0,2.0,7524.0,blue,Reality,4,4,5,1.0,1.0,3174.0,0
S008,Female_018_h,11.0,2.0,6478.0,green,Fiction,5,4,5,1.0,1.0,2572.0,1
S008,Female_001_h,12.0,2.0,4877.0,blue,Reality,6,5,6,1.0,1.0,2523.0,-1
S008,Female_021_h,13.0,2.0,7488.0,green,Fiction,5,5,6,1.0,1.0,2093.0,1
S008,Female_015_v,14.0,2.0,6724.0,blue,Reality,4,5,4,1.0,1.0,9213.0,1
S008,Opposite-sex_couple_024_h,15.0,2.0,10443.0,blue,Reality,6,5,6,1.0,1.0,2138.0,2
S008,Female_024_v,16.0,2.0,5289.0,green,Fiction,5,4,5,1.0,1.0,2033.0,0
S008,Opposite-sex_couple_014_h,17.0,2.0,6407.0,green,Fiction,6,5,6,1.0,1.0,4030.0,3
S008,Opposite-sex_couple_020_h,18.0,2.0,7387.0,blue,Reality,5,5,6,1.0,1.0,2128.0,2
S008,Opposite-sex_couple_012_h,19.0,2.0,6461.0,green,Fiction,6,4,6,1.0,1.0,2272.0,2
S008,Opposite-sex_couple_016_v,20.0,2.0,8909.0,green,Fiction,5,5,4,1.0,1.0,2246.0,1
S008,Female_020_v,21.0,2.0,5793.0,blue,Reality,5,4,5,1.0,1.0,2267.0,2
S008,Female_011_h,22.0,2.0,5091.0,blue,Reality,4,5,5,1.0,1.0,2794.0,1
S008,Opposite-sex_couple_001_v,23.0,2.0,5178.0,blue,Reality,4,5,4,1.0,1.0,1440.0,2
S008,Opposite-sex_couple_035_h,24.0,2.0,5284.0,blue,Reality,4,4,5,1.0,1.0,6010.0,1
S008,Opposite-sex_couple_033_v,25.0,2.0,6311.0,blue,Reality,5,5,4,1.0,1.0,1731.0,0
S008,Opposite-sex_couple_025_h,26.0,2.0,8083.0,green,Fiction,6,5,6,1.0,1.0,3071.0,0
S008,Opposite-sex_couple_009_h,27.0,2.0,5553.0,green,Fiction,6,5,6,1.0,1.0,2661.0,2
S008,Female_008_v,28.0,2.0,6996.0,blue,Reality,6,5,6,1.0,1.0,1819.0,1
S008,Opposite-sex_couple_013_h,29.0,2.0,5312.0,green,Fiction,5,4,6,1.0,1.0,1960.0,-1
S008,Female_009_h,30.0,2.0,6987.0,green,Fiction,6,5,5,1.0,1.0,1962.0,-1
S008,Female_014_v,31.0,2.0,4159.0,blue,Reality,4,5,4,1.0,1.0,1992.0,2
S008,Opposite-sex_couple_047_v,32.0,2.0,5521.0,green,Fiction,5,4,5,1.0,1.0,1620.0,1
S008,Female_017_v,33.0,2.0,7417.0,blue,Reality,6,5,5,1.0,1.0,2916.0,-1
S008,Opposite-sex_couple_011_h,34.0,2.0,6987.0,blue,Reality,6,5,6,1.0,1.0,5024.0,0
S008,Female_003_v,35.0,2.0,11019.0,green,Fiction,6,5,5,1.0,1.0,1769.0,2
S008,Opposite-sex_couple_022_v,36.0,2.0,7743.0,blue,Reality,5,4,6,1.0,1.0,3739.0,1
S008,Female_010_h,37.0,2.0,5813.0,green,Fiction,6,5,5,1.0,1.0,1910.0,-2
S008,Female_002_h,38.0,2.0,4725.0,blue,Reality,6,5,6,1.0,1.0,4611.0,-1
S008,Female_012_v,39.0,2.0,5699.0,green,Fiction,5,5,6,1.0,1.0,1922.0,-1
S008,Opposite-sex_couple_002_h,40.0,2.0,5762.0,blue,Reality,6,6,5,1.0,1.0,2243.0,2
S008,Opposite-sex_couple_017_v,41.0,2.0,6608.0,green,Fiction,6,5,5,1.0,1.0,1365.0,2
S008,Female_005_v,42.0,2.0,7639.0,green,Fiction,4,3,4,1.0,1.0,3765.0,2
S008,Opposite-sex_couple_015_h,43.0,2.0,7094.0,blue,Reality,5,5,6,1.0,1.0,2503.0,2
S008,Opposite-sex_couple_018_h,44.0,2.0,8822.0,green,Fiction,6,6,6,1.0,1.0,2405.0,1
S008,Opposite-sex_couple_005_h,45.0,2.0,7078.0,blue,Reality,6,6,6,1.0,1.0,7384.0,1
S008,Female_025_h,46.0,2.0,4623.0,green,Fiction,5,6,5,1.0,1.0,2001.0,-1
S008,Opposite-sex_couple_048_h,47.0,2.0,5931.0,blue,Reality,5,6,5,1.0,1.0,2233.0,2
S008,Opposite-sex_couple_023_h,48.0,2.0,5559.0,blue,Reality,6,6,6,1.0,1.0,2156.0,1
S008,Female_019_h,49.0,2.0,4592.0,blue,Reality,5,4,5,1.0,1.0,2299.0,2
S008,Female_016_h,50.0,2.0,5212.0,blue,Reality,4,6,3,1.0,1.0,1724.0,1
S049,Female_020_v,1.0,2.0,15825.0,green,Reality,5,5,3,1.0,1.0,2044.0,2
S049,Female_023_h,2.0,2.0,4512.0,blue,Fiction,3,3,3,1.0,1.0,1224.0,-2
S049,Female_002_h,3.0,2.0,4509.0,green,Reality,5,5,5,1.0,1.0,1206.0,-3
S049,Female_007_v,4.0,2.0,4547.0,blue,Fiction,1,1,1,1.0,1.0,1570.0,-2
S049,Female_018_h,5.0,2.0,3657.0,green,Reality,5,5,5,1.0,1.0,6245.0,3
S049,Female_019_h,6.0,2.0,4046.0,green,Reality,4,4,4,1.0,1.0,1373.0,-2
S049,Female_couple_015_h,7.0,2.0,8545.0,blue,Fiction,5,5,5,1.0,1.0,1231.0,-3
S049,Female_009_h,8.0,2.0,3888.0,blue,Fiction,5,5,5,1.0,1.0,1413.0,-2
S049,Female_015_v,9.0,2.0,2930.0,blue,Fiction,2,2,2,1.0,1.0,1234.0,0
S049,Female_couple_022_h,10.0,2.0,2877.0,green,Reality,3,3,3,1.0,1.0,1237.0,2
S049,Female_couple_028_h,11.0,2.0,2638.0,green,Reality,2,2,2,1.0,1.0,1000.0,2
S049,Female_025_h,12.0,2.0,3490.0,green,Reality,2,2,2,1.0,1.0,1128.0,-3
S049,Female_couple_040_h,13.0,2.0,2468.0,blue,Fiction,3,3,3,1.0,1.0,1324.0,2
S049,Female_couple_009_v,14.0,2.0,3539.0,blue,Fiction,6,6,6,1.0,1.0,1293.0,-2
S049,Female_couple_024_h,15.0,2.0,3565.0,green,Reality,4,4,4,1.0,1.0,1589.0,-2
S049,Female_001_h,16.0,2.0,12726.0,blue,Fiction,3,3,3,1.0,1.0,1610.0,3
S049,Female_couple_014_v,17.0,2.0,7462.0,green,Reality,5,5,5,1.0,1.0,1445.0,-3
S049,Female_couple_013_h,18.0,2.0,3800.0,green,Reality,2,2,2,1.0,1.0,1140.0,2
S049,Female_010_h,19.0,2.0,3067.0,blue,Fiction,2,2,2,1.0,1.0,1308.0,-2
S049,Female_024_v,20.0,2.0,3018.0,blue,Fiction,2,2,2,1.0,1.0,1451.0,-1
S049,Female_couple_032_v,21.0,2.0,3101.0,green,Reality,5,5,5,1.0,1.0,1647.0,-1
S049,Female_013_h,22.0,2.0,2830.0,blue,Fiction,5,5,5,1.0,1.0,1148.0,-3
S049,Female_021_h,23.0,2.0,8973.0,green,Reality,2,2,2,1.0,1.0,1050.0,-2
S049,Female_couple_023_h,24.0,2.0,4558.0,blue,Fiction,5,5,5,1.0,1.0,1170.0,-1
S049,Female_couple_037_v,25.0,2.0,3772.0,green,Reality,6,6,6,1.0,1.0,1215.0,3
S049,Female_017_v,26.0,2.0,3565.0,green,Reality,3,3,3,1.0,1.0,1271.0,-3
S049,Female_couple_008_v,27.0,2.0,2942.0,blue,Fiction,5,5,5,1.0,1.0,1270.0,-2
S049,Female_008_v,28.0,2.0,2358.0,green,Reality,2,2,2,1.0,1.0,1075.0,2
S049,Female_couple_002_v,29.0,2.0,2510.0,green,Reality,4,4,4,1.0,1.0,1224.0,3
S049,Female_couple_021_h,30.0,2.0,3315.0,blue,Fiction,1,1,1,1.0,1.0,1280.0,-2
S049,Female_014_v,31.0,2.0,2866.0,blue,Fiction,2,2,2,1.0,1.0,1451.0,-3
S049,Female_016_h,32.0,2.0,3101.0,green,Reality,2,2,2,1.0,1.0,1442.0,-3
S049,Female_couple_012_v,33.0,2.0,2833.0,green,Reality,2,2,2,1.0,1.0,922.0,2
S049,Female_couple_003_h,34.0,2.0,3095.0,blue,Fiction,4,4,5,1.0,1.0,1228.0,3
S049,Female_couple_048_h,35.0,2.0,3474.0,blue,Fiction,5,5,5,1.0,1.0,1109.0,2
S049,Female_003_v,36.0,2.0,2988.0,green,Reality,3,3,3,1.0,1.0,1012.0,-1
S049,Female_006_v,37.0,2.0,3015.0,green,Reality,5,5,5,1.0,1.0,1176.0,2
S049,Female_couple_038_h,38.0,2.0,4429.0,green,Reality,3,3,3,1.0,1.0,1642.0,2
S049,Female_012_v,39.0,2.0,2872.0,blue,Fiction,3,3,3,1.0,1.0,1762.0,-3
S049,Female_022_h,40.0,2.0,9605.0,blue,Fiction,5,5,5,1.0,1.0,2557.0,2
S049,Female_couple_031_v,41.0,2.0,2497.0,green,Reality,3,3,3,1.0,1.0,1098.0,3
S049,Female_005_v,42.0,2.0,3828.0,blue,Fiction,3,3,3,1.0,1.0,1097.0,3
S049,Female_couple_019_h,43.0,2.0,2756.0,blue,Fiction,5,5,5,1.0,1.0,1432.0,-3
S049,Female_couple_034_h,44.0,2.0,2721.0,green,Reality,3,3,3,1.0,1.0,1201.0,3
S049,Female_011_h,45.0,2.0,4614.0,green,Reality,3,3,3,1.0,1.0,1145.0,-2
S049,Female_couple_025_h,46.0,2.0,4230.0,blue,Fiction,5,5,5,1.0,1.0,1194.0,3
S049,Female_couple_016_v,47.0,2.0,2887.0,blue,Fiction,3,3,3,1.0,1.0,1437.0,3
S049,Female_004_v,48.0,2.0,2365.0,green,Reality,2,2,2,1.0,1.0,1433.0,-2
S049,Female_couple_010_h,49.0,2.0,2441.0,green,Reality,5,5,5,1.0,1.0,1116.0,2
S049,Female_couple_020_h,50.0,2.0,3919.0,blue,Fiction,4,4,4,1.0,1.0,1271.0,2
S019,Male_couple_029_h,1.0,2.0,20193.0,blue,Fiction,1,6,3,1.0,1.0,1377.0,3
S019,Male_couple_010_h,2.0,2.0,8935.0,green,Reality,1,5,1,1.0,1.0,1179.0,3
S019,Male_couple_011_v,3.0,2.0,11694.0,green,Reality,2,2,3,1.0,1.0,1609.0,3
S019,Male_011_v,4.0,2.0,5458.0,green,Reality,6,6,6,1.0,1.0,1997.0,-1
S019,Male_002_v,5.0,2.0,8163.0,green,Reality,5,6,6,1.0,1.0,3000.0,-2
S019,Male_couple_006_h,6.0,2.0,41785.0,green,Reality,1,4,5,1.0,1.0,2091.0,-3
S019,Male_couple_009_v,7.0,2.0,7873.0,blue,Fiction,4,5,5,1.0,1.0,3477.0,1
S019,Male_015_v,8.0,2.0,9961.0,blue,Fiction,5,6,5,1.0,1.0,2243.0,0
S019,Male_025_v,9.0,2.0,8242.0,green,Reality,4,5,3,1.0,1.0,2248.0,-1
S019,Male_013_v,10.0,2.0,6098.0,green,Reality,5,4,4,1.0,1.0,1967.0,-2
S019,Male_couple_002_h,11.0,2.0,5925.0,blue,Fiction,3,5,5,1.0,1.0,1504.0,2
S019,Male_couple_013_h,12.0,2.0,17146.0,green,Reality,3,5,5,1.0,1.0,3309.0,0
S019,Male_018_v,13.0,2.0,4944.0,blue,Fiction,4,5,4,1.0,1.0,2516.0,3
S019,Male_023_v,14.0,2.0,5872.0,blue,Fiction,4,5,6,1.0,1.0,1322.0,3
S019,Male_024_h,15.0,2.0,5378.0,green,Reality,5,6,6,1.0,1.0,1372.0,3
S019,Male_019_h,16.0,2.0,5129.0,blue,Fiction,6,6,6,1.0,1.0,2374.0,0
S019,Male_couple_037_v,17.0,2.0,5405.0,green,Reality,5,6,5,1.0,1.0,3367.0,3
S019,Male_001_v,18.0,2.0,5735.0,green,Reality,4,5,5,1.0,1.0,1952.0,0
S019,Male_couple_023_v,19.0,2.0,7345.0,blue,Fiction,4,6,5,1.0,1.0,3398.0,-3
S019,Male_021_h,20.0,2.0,5031.0,blue,Fiction,6,6,6,1.0,1.0,1927.0,-2
S019,Male_022_v,21.0,2.0,11019.0,blue,Fiction,6,5,6,1.0,1.0,2830.0,0
S019,Male_couple_044_h,22.0,2.0,3863.0,green,Reality,6,5,6,1.0,1.0,1577.0,3
S019,Male_008_v,23.0,2.0,4900.0,blue,Fiction,6,6,6,1.0,1.0,1537.0,3
S019,Male_couple_022_v,24.0,2.0,5148.0,green,Reality,5,5,5,1.0,1.0,1508.0,3
S019,Male_couple_012_v,25.0,2.0,7675.0,blue,Fiction,4,5,6,1.0,1.0,1931.0,0
S019,Male_couple_018_h,26.0,2.0,5324.0,green,Reality,5,6,5,1.0,1.0,2410.0,3
S019,Male_couple_025_v,27.0,2.0,5665.0,blue,Fiction,5,6,5,1.0,1.0,1197.0,2
S019,Male_004_v,28.0,2.0,7025.0,green,Reality,6,6,6,1.0,1.0,1452.0,2
S019,Male_couple_003_v,29.0,2.0,5671.0,blue,Fiction,6,6,6,1.0,1.0,2938.0,0
S019,Male_couple_047_h,30.0,2.0,5149.0,blue,Fiction,4,6,5,1.0,1.0,2057.0,3
S019,Male_couple_014_h,31.0,2.0,4836.0,green,Reality,5,6,5,1.0,1.0,1333.0,3
S019,Male_couple_024_h,32.0,2.0,5526.0,blue,Fiction,6,6,6,1.0,1.0,1753.0,2
S019,Male_couple_015_v,33.0,2.0,5823.0,green,Reality,5,6,5,1.0,1.0,3179.0,1
S019,Male_couple_021_h,34.0,2.0,4554.0,green,Reality,6,6,6,1.0,1.0,7955.0,3
S019,Male_006_v,35.0,2.0,5717.0,green,Reality,4,5,3,1.0,1.0,2470.0,2
S019,Male_009_v,36.0,2.0,6291.0,blue,Fiction,5,6,6,1.0,1.0,1954.0,-1
S019,Male_couple_007_v,37.0,2.0,6894.0,green,Reality,4,6,4,1.0,1.0,2280.0,-3
S019,Male_couple_019_h,38.0,2.0,5107.0,blue,Fiction,3,5,5,1.0,1.0,1220.0,2
S019,Male_003_v,39.0,2.0,5657.0,blue,Fiction,6,6,6,1.0,1.0,1432.0,3
S019,Male_017_v,40.0,2.0,5467.0,green,Reality,5,6,5,1.0,1.0,2127.0,1
S019,Male_012_h,41.0,2.0,5814.0,green,Reality,5,6,5,1.0,1.0,1510.0,2
S019,Male_couple_020_h,42.0,2.0,8048.0,blue,Fiction,4,5,5,1.0,1.0,2352.0,-1
S019,Male_014_v,43.0,2.0,5223.0,blue,Fiction,5,4,6,1.0,1.0,2293.0,2
S019,Male_007_h,44.0,2.0,5106.0,green,Reality,5,6,5,1.0,1.0,1614.0,-1
S019,Male_005_v,45.0,2.0,6803.0,green,Reality,5,4,4,1.0,1.0,2741.0,0
S019,Male_016_v,46.0,2.0,8742.0,blue,Fiction,5,4,5,1.0,1.0,2071.0,2
S019,Male_010_v,47.0,2.0,5586.0,blue,Fiction,6,6,6,1.0,1.0,1583.0,0
S019,Male_020_v,48.0,2.0,4596.0,green,Reality,6,6,6,1.0,1.0,1857.0,-1
S019,Male_couple_016_h,49.0,2.0,7399.0,blue,Fiction,5,6,5,1.0,1.0,1750.0,2
S019,Male_couple_033_v,50.0,2.0,6137.0,green,Reality,5,6,6,1.0,1.0,2479.0,2
S002,Opposite-sex_couple_002_h,1.0,2.0,8280.0,green,Fiction,6,4,6,1.0,1.0,4813.0,2
S002,Opposite-sex_couple_007_h,2.0,2.0,11401.0,green,Fiction,2,4,4,1.0,1.0,2471.0,1
S002,Female_020_v,3.0,2.0,5736.0,red,Reality,6,6,6,1.0,1.0,1753.0,3
S002,Female_005_v,4.0,2.0,10024.0,red,Reality,3,5,3,1.0,1.0,1859.0,3
S002,Female_012_v,5.0,2.0,8433.0,green,Fiction,3,5,3,1.0,1.0,2458.0,-2
S002,Opposite-sex_couple_048_h,6.0,2.0,8697.0,red,Reality,1,3,0,1.0,1.0,2685.0,3
S002,Opposite-sex_couple_012_h,7.0,2.0,6815.0,red,Reality,0,3,0,1.0,1.0,1729.0,3
S002,Opposite-sex_couple_023_h,8.0,2.0,9293.0,red,Reality,3,5,3,1.0,1.0,1939.0,1
S002,Opposite-sex_couple_022_v,9.0,2.0,6190.0,red,Reality,0,2,1,1.0,1.0,3883.0,3
S002,Opposite-sex_couple_024_h,10.0,2.0,8328.0,red,Reality,3,4,2,1.0,1.0,2128.0,3
S002,Opposite-sex_couple_017_v,11.0,2.0,7088.0,red,Reality,0,4,1,1.0,1.0,2910.0,-2
S002,Female_010_h,12.0,2.0,6267.0,red,Reality,0,4,0,1.0,1.0,2266.0,-3
S002,Opposite-sex_couple_001_v,13.0,2.0,4965.0,green,Fiction,0,2,0,1.0,1.0,1425.0,-3
S002,Female_011_h,14.0,2.0,6690.0,green,Fiction,0,1,0,1.0,1.0,1738.0,-3
S002,Female_025_h,15.0,2.0,9849.0,red,Reality,0,3,0,1.0,1.0,1810.0,-3
S002,Female_006_v,16.0,2.0,8218.0,green,Fiction,1,6,0,1.0,1.0,1610.0,-3
S002,Female_003_v,17.0,2.0,7502.0,red,Reality,1,4,1,1.0,1.0,1759.0,-3
S002,Female_023_h,18.0,2.0,13994.0,green,Fiction,0,3,0,1.0,1.0,2792.0,1
S002,Opposite-sex_couple_042_h,19.0,2.0,9673.0,red,Reality,0,1,2,1.0,1.0,2258.0,1
S002,Opposite-sex_couple_019_v,20.0,2.0,9054.0,green,Fiction,0,0,1,1.0,1.0,2710.0,-1
S002,Opposite-sex_couple_009_h,21.0,2.0,10663.0,green,Fiction,0,2,3,1.0,1.0,2020.0,-2
S002,Opposite-sex_couple_025_h,22.0,2.0,32996.0,green,Fiction,0,6,0,1.0,1.0,2245.0,3
S002,Female_007_v,23.0,2.0,17133.0,red,Reality,0,4,0,1.0,1.0,2874.0,-3
S002,Female_022_h,24.0,2.0,8866.0,red,Reality,4,6,5,1.0,1.0,2766.0,2
S002,Female_019_h,25.0,2.0,7964.0,green,Fiction,2,4,4,1.0,1.0,2041.0,2
S002,Opposite-sex_couple_011_h,26.0,2.0,7274.0,red,Reality,0,3,3,1.0,1.0,2210.0,1
S002,Female_021_h,27.0,2.0,5445.0,green,Fiction,6,6,6,1.0,1.0,4380.0,1
S002,Female_024_v,28.0,2.0,7571.0,red,Reality,4,5,3,1.0,1.0,3295.0,3
S002,Opposite-sex_couple_016_v,29.0,2.0,6362.0,green,Fiction,0,2,3,1.0,1.0,2405.0,1
S002,Female_014_v,30.0,2.0,8615.0,green,Fiction,1,4,3,1.0,1.0,1737.0,-3
S002,Female_013_h,31.0,2.0,9300.0,green,Fiction,2,6,4,1.0,1.0,1991.0,-3
S002,Opposite-sex_couple_005_h,32.0,2.0,13433.0,red,Reality,3,3,2,1.0,1.0,2967.0,1
S002,Female_015_v,33.0,2.0,7917.0,green,Fiction,0,3,3,1.0,1.0,2123.0,-3
S002,Female_002_h,34.0,2.0,4862.0,red,Reality,6,6,6,1.0,1.0,2159.0,1
S002,Female_004_v,35.0,2.0,5950.0,red,Reality,3,4,5,1.0,1.0,1907.0,-3
S002,Female_001_h,36.0,2.0,11903.0,red,Reality,2,6,4,1.0,1.0,2827.0,-2
S002,Opposite-sex_couple_013_h,37.0,2.0,36872.0,green,Fiction,0,3,3,1.0,1.0,1628.0,3
S002,Opposite-sex_couple_047_v,38.0,2.0,6556.0,red,Reality,0,4,3,1.0,1.0,2150.0,3
S002,Female_009_h,39.0,2.0,9002.0,green,Fiction,0,5,3,1.0,1.0,1618.0,-3
S002,Female_016_h,40.0,2.0,4330.0,red,Reality,6,6,6,1.0,1.0,1917.0,3
S002,Female_008_v,41.0,2.0,6814.0,red,Reality,2,5,4,1.0,1.0,1819.0,-3
S002,Opposite-sex_couple_008_h,42.0,2.0,9061.0,green,Fiction,0,3,2,1.0,1.0,2394.0,-3
S002,Opposite-sex_couple_018_h,43.0,2.0,7102.0,red,Reality,5,6,6,1.0,1.0,3478.0,2
S002,Opposite-sex_couple_020_h,44.0,2.0,8829.0,green,Fiction,2,4,3,1.0,1.0,2407.0,2
S002,Opposite-sex_couple_014_h,45.0,2.0,8526.0,green,Fiction,1,6,4,1.0,1.0,2143.0,2
S002,Opposite-sex_couple_015_h,46.0,2.0,7638.0,green,Fiction,2,5,3,1.0,1.0,2112.0,3
S002,Opposite-sex_couple_033_v,47.0,2.0,7104.0,red,Reality,0,4,1,1.0,1.0,3314.0,2
S002,Female_018_h,48.0,2.0,9118.0,green,Fiction,3,4,4,1.0,1.0,1873.0,3
S002,Opposite-sex_couple_035_h,49.0,2.0,4417.0,red,Reality,0,4,3,1.0,1.0,4813.0,2
S002,Female_017_v,50.0,2.0,9683.0,green,Fiction,2,3,4,1.0,1.0,2285.0,-3
S032,Opposite-sex_couple_018_h,1.0,2.0,23715.0,green,Fiction,3,5,4,1.0,1.0,3904.0,3
S032,Female_008_v,2.0,2.0,7493.0,green,Fiction,4,5,5,1.0,1.0,1659.0,-1
S032,Opposite-sex_couple_020_h,3.0,2.0,8848.0,green,Fiction,3,4,4,1.0,1.0,3519.0,0
S032,Female_010_h,4.0,2.0,5206.0,green,Fiction,3,4,4,1.0,1.0,1401.0,-3
S032,Female_016_h,5.0,2.0,9248.0,green,Fiction,3,5,5,1.0,1.0,2258.0,2
S032,Female_025_h,6.0,2.0,9781.0,blue,Reality,3,5,5,1.0,1.0,2002.0,-1
S032,Opposite-sex_couple_008_h,7.0,2.0,4710.0,blue,Reality,4,5,5,1.0,1.0,1057.0,-3
S032,Opposite-sex_couple_017_v,8.0,2.0,5722.0,blue,Reality,3,5,5,1.0,1.0,2043.0,-1
S032,Female_005_v,9.0,2.0,8997.0,green,Fiction,2,3,3,1.0,1.0,3182.0,1
S032,Opposite-sex_couple_042_h,10.0,2.0,5360.0,blue,Reality,1,3,4,1.0,1.0,3961.0,-1
S032,Opposite-sex_couple_002_h,11.0,2.0,6763.0,blue,Reality,3,3,3,1.0,1.0,2135.0,-1
S032,Female_021_h,12.0,2.0,8136.0,green,Fiction,5,5,6,1.0,1.0,2072.0,-2
S032,Opposite-sex_couple_048_h,13.0,2.0,5464.0,green,Fiction,3,3,4,1.0,1.0,1524.0,2
S032,Female_009_h,14.0,2.0,4697.0,blue,Reality,5,5,5,1.0,1.0,3535.0,-1
S032,Female_022_h,15.0,2.0,4878.0,blue,Reality,5,5,6,1.0,1.0,2664.0,3
S032,Opposite-sex_couple_009_h,16.0,2.0,7406.0,blue,Reality,4,4,4,1.0,1.0,1080.0,-1
S032,Female_020_v,17.0,2.0,4038.0,green,Fiction,5,5,6,1.0,1.0,1602.0,3
S032,Female_012_v,18.0,2.0,3502.0,green,Fiction,4,5,5,1.0,1.0,1455.0,-1
S032,Opposite-sex_couple_035_h,19.0,2.0,11854.0,green,Fiction,1,1,3,1.0,1.0,2725.0,-1
S032,Female_006_v,20.0,2.0,6752.0,blue,Reality,6,6,6,1.0,1.0,1751.0,-1
S032,Opposite-sex_couple_015_h,21.0,2.0,5261.0,blue,Reality,4,5,5,1.0,1.0,1772.0,2
S032,Opposite-sex_couple_014_h,22.0,2.0,10919.0,green,Fiction,4,4,3,1.0,1.0,1732.0,1
S032,Opposite-sex_couple_001_v,23.0,2.0,6232.0,blue,Reality,2,3,3,1.0,1.0,1225.0,-3
S032,Opposite-sex_couple_012_h,24.0,2.0,4548.0,blue,Reality,5,5,5,1.0,1.0,1747.0,-1
S032,Opposite-sex_couple_016_v,25.0,2.0,5013.0,green,Fiction,3,4,4,1.0,1.0,1465.0,-1
S032,Female_004_v,26.0,2.0,3769.0,blue,Reality,4,5,5,1.0,1.0,1707.0,-2
S032,Female_007_v,27.0,2.0,3843.0,blue,Reality,4,5,5,1.0,1.0,1086.0,1
S032,Opposite-sex_couple_025_h,28.0,2.0,3308.0,blue,Reality,6,6,6,1.0,1.0,1650.0,-3
S032,Female_002_h,29.0,2.0,3727.0,green,Fiction,5,5,5,1.0,1.0,2466.0,1
S032,Opposite-sex_couple_022_v,30.0,2.0,15564.0,blue,Reality,3,3,3,1.0,1.0,1085.0,-3
S032,Opposite-sex_couple_033_v,31.0,2.0,4026.0,green,Fiction,4,4,5,1.0,1.0,2091.0,1
S032,Opposite-sex_couple_047_v,32.0,2.0,8179.0,green,Fiction,0,0,3,1.0,1.0,2397.0,-3
S032,Female_014_v,33.0,2.0,4787.0,green,Fiction,4,4,3,1.0,1.0,1803.0,-3
S032,Female_023_h,34.0,2.0,4648.0,blue,Reality,5,5,5,1.0,1.0,1119.0,2
S032,Female_018_h,35.0,2.0,4048.0,blue,Reality,6,6,6,1.0,1.0,2249.0,2
S032,Female_017_v,36.0,2.0,11134.0,blue,Reality,5,5,5,1.0,1.0,2022.0,0
S032,Female_015_v,37.0,2.0,5512.0,blue,Reality,3,4,4,1.0,1.0,1060.0,-1
S032,Female_013_h,38.0,2.0,4070.0,green,Fiction,3,3,3,1.0,1.0,3135.0,-3
S032,Opposite-sex_couple_023_h,39.0,2.0,7841.0,blue,Reality,3,3,3,1.0,1.0,1702.0,-3
S032,Female_001_h,40.0,2.0,3679.0,blue,Reality,4,4,4,1.0,1.0,1669.0,3
S032,Female_019_h,41.0,2.0,3687.0,blue,Reality,5,5,6,1.0,1.0,3139.0,-1
S032,Opposite-sex_couple_007_h,42.0,2.0,3855.0,green,Fiction,2,3,3,1.0,1.0,2786.0,2
S032,Opposite-sex_couple_005_h,43.0,2.0,4064.0,blue,Reality,4,5,5,1.0,1.0,1410.0,2
S032,Opposite-sex_couple_024_h,44.0,2.0,3481.0,green,Fiction,5,5,5,1.0,1.0,2029.0,1
S032,Opposite-sex_couple_013_h,45.0,2.0,7241.0,green,Fiction,3,2,2,1.0,1.0,1338.0,-3
S032,Female_003_v,46.0,2.0,4499.0,green,Fiction,3,3,3,1.0,1.0,1491.0,1
S032,Opposite-sex_couple_019_v,47.0,2.0,3819.0,blue,Reality,0,0,3,1.0,1.0,2230.0,-3
S032,Female_011_h,48.0,2.0,6629.0,green,Fiction,4,4,4,1.0,1.0,1030.0,-3
S032,Female_024_v,49.0,2.0,3580.0,blue,Reality,4,4,4,1.0,1.0,2368.0,0
S032,Opposite-sex_couple_011_h,50.0,2.0,7571.0,green,Fiction,1,2,2,1.0,1.0,1870.0,-3
S011,Female_007_v,1.0,2.0,6668.0,red,Reality,6,6,6,1.0,1.0,1672.0,3
S011,Opposite-sex_couple_014_h,2.0,2.0,5744.0,red,Reality,6,6,6,1.0,1.0,2342.0,2
S011,Female_004_v,3.0,2.0,4595.0,red,Reality,6,6,6,1.0,1.0,1179.0,-3
S011,Opposite-sex_couple_008_h,4.0,2.0,4334.0,red,Reality,6,6,6,1.0,1.0,1218.0,2
S011,Female_021_h,5.0,2.0,5357.0,blue,Fiction,6,6,6,1.0,1.0,1305.0,-1
S011,Opposite-sex_couple_002_h,6.0,2.0,3185.0,blue,Fiction,6,6,5,1.0,1.0,975.0,3
S011,Female_009_h,7.0,2.0,2924.0,red,Reality,6,6,6,1.0,1.0,1425.0,3
S011,Opposite-sex_couple_017_v,8.0,2.0,4682.0,blue,Fiction,1,2,1,1.0,1.0,1007.0,3
S011,Opposite-sex_couple_016_v,9.0,2.0,2888.0,red,Reality,1,3,2,1.0,1.0,1068.0,-1
S011,Opposite-sex_couple_047_v,10.0,2.0,2682.0,blue,Fiction,0,0,0,1.0,1.0,1216.0,-2
S011,Opposite-sex_couple_013_h,11.0,2.0,6413.0,red,Reality,3,2,2,1.0,1.0,1582.0,-2
S011,Female_011_h,12.0,2.0,5098.0,blue,Fiction,4,3,2,1.0,1.0,1003.0,-3
S011,Female_012_v,13.0,2.0,3444.0,blue,Fiction,4,3,2,1.0,1.0,1212.0,-2
S011,Opposite-sex_couple_020_h,14.0,2.0,4261.0,blue,Fiction,1,1,1,1.0,1.0,935.0,3
S011,Female_024_v,15.0,2.0,3274.0,red,Reality,3,1,1,1.0,1.0,915.0,2
S011,Female_014_v,16.0,2.0,2589.0,red,Reality,0,0,0,1.0,1.0,915.0,3
S011,Female_015_v,17.0,2.0,2937.0,blue,Fiction,1,1,1,1.0,1.0,1257.0,-3
S011,Opposite-sex_couple_001_v,18.0,2.0,2548.0,blue,Fiction,2,0,1,1.0,1.0,4939.0,3
S011,Opposite-sex_couple_042_h,19.0,2.0,2492.0,blue,Fiction,0,1,1,1.0,1.0,995.0,-3
S011,Female_018_h,20.0,2.0,4056.0,red,Reality,6,6,5,1.0,1.0,998.0,2
S011,Female_023_h,21.0,2.0,3404.0,blue,Fiction,6,6,6,1.0,1.0,1267.0,2
S011,Female_025_h,22.0,2.0,2469.0,blue,Fiction,0,1,0,1.0,1.0,8776.0,2
S011,Opposite-sex_couple_019_v,23.0,2.0,2636.0,red,Reality,0,0,0,1.0,1.0,1092.0,-3
S011,Female_001_h,24.0,2.0,3440.0,red,Reality,5,5,5,1.0,1.0,1346.0,3
S011,Opposite-sex_couple_048_h,25.0,2.0,2632.0,blue,Fiction,1,1,1,1.0,1.0,1014.0,2
S011,Opposite-sex_couple_023_h,26.0,2.0,3476.0,blue,Fiction,2,3,2,1.0,1.0,1066.0,-2
S011,Opposite-sex_couple_009_h,27.0,2.0,2810.0,red,Reality,2,1,1,1.0,1.0,1116.0,3
S011,Opposite-sex_couple_015_h,28.0,2.0,2730.0,red,Reality,4,4,6,1.0,1.0,970.0,3
S011,Female_013_h,29.0,2.0,3483.0,red,Reality,6,5,6,1.0,1.0,1334.0,-1
S011,Opposite-sex_couple_033_v,30.0,2.0,2621.0,red,Reality,5,5,5,1.0,1.0,1424.0,2
S011,Female_002_h,31.0,2.0,2549.0,red,Reality,6,6,6,1.0,1.0,1188.0,2
S011,Opposite-sex_couple_018_h,32.0,2.0,3295.0,red,Reality,6,6,6,1.0,1.0,1023.0,3
S011,Female_006_v,33.0,2.0,4207.0,red,Reality,6,5,6,1.0,1.0,1642.0,3
S011,Female_019_h,34.0,2.0,3215.0,red,Reality,6,6,6,1.0,1.0,965.0,3
S011,Female_005_v,35.0,2.0,2638.0,blue,Fiction,6,6,6,1.0,1.0,1116.0,3
S011,Opposite-sex_couple_024_h,36.0,2.0,3615.0,red,Reality,6,6,6,1.0,1.0,1072.0,3
S011,Female_020_v,37.0,2.0,3404.0,blue,Fiction,6,6,6,1.0,1.0,1238.0,3
S011,Opposite-sex_couple_007_h,38.0,2.0,3666.0,blue,Fiction,2,1,2,1.0,1.0,1719.0,-2
S011,Female_017_v,39.0,2.0,2754.0,blue,Fiction,5,5,5,1.0,1.0,2185.0,-1
S011,Female_010_h,40.0,2.0,3119.0,red,Reality,6,6,4,1.0,1.0,1960.0,1
S011,Opposite-sex_couple_035_h,41.0,2.0,3834.0,blue,Fiction,0,1,3,1.0,1.0,1728.0,-3
S011,Opposite-sex_couple_022_v,42.0,2.0,2139.0,red,Reality,0,0,0,1.0,1.0,950.0,3
S011,Opposite-sex_couple_025_h,43.0,2.0,2660.0,red,Reality,6,5,6,1.0,1.0,1797.0,2
S011,Female_008_v,44.0,2.0,3557.0,blue,Fiction,6,6,6,1.0,1.0,1097.0,1
S011,Female_016_h,45.0,2.0,2555.0,red,Reality,0,0,0,1.0,1.0,980.0,-3
S011,Opposite-sex_couple_005_h,46.0,2.0,3021.0,blue,Fiction,5,5,6,1.0,1.0,864.0,3
S011,Opposite-sex_couple_011_h,47.0,2.0,3197.0,red,Reality,2,5,4,1.0,1.0,1119.0,2
S011,Opposite-sex_couple_012_h,48.0,2.0,2479.0,blue,Fiction,6,6,6,1.0,1.0,1241.0,2
S011,Female_022_h,49.0,2.0,2760.0,blue,Fiction,6,6,6,1.0,1.0,9546.0,1
S011,Female_003_v,50.0,2.0,2675.0,blue,Fiction,5,5,4,1.0,1.0,1375.0,3
S005,Male_008_v,1.0,2.0,10262.0,blue,Reality,5,5,4,1.0,1.0,1057.0,3
S005,Opposite-sex_couple_016_v,2.0,2.0,7691.0,blue,Reality,6,6,6,1.0,1.0,1136.0,3
S005,Male_022_v,3.0,2.0,5438.0,red,Fiction,0,0,0,1.0,1.0,3156.0,0
S005,Male_004_v,4.0,2.0,5156.0,blue,Reality,0,0,0,1.0,1.0,1873.0,-1
S005,Male_017_v,5.0,2.0,5481.0,blue,Reality,0,0,0,1.0,1.0,1158.0,3
S005,Male_005_v,6.0,2.0,6637.0,red,Fiction,4,4,4,1.0,1.0,1295.0,-3
S005,Opposite-sex_couple_047_v,7.0,2.0,7834.0,blue,Reality,3,3,2,1.0,1.0,1773.0,0
S005,Male_007_h,8.0,2.0,4632.0,red,Fiction,0,0,0,1.0,1.0,1167.0,3
S005,Opposite-sex_couple_033_v,9.0,2.0,9190.0,blue,Reality,5,6,6,1.0,1.0,976.0,3
S005,Male_002_v,10.0,2.0,4676.0,red,Fiction,0,0,0,1.0,1.0,1220.0,3
S005,Opposite-sex_couple_008_h,11.0,2.0,7005.0,blue,Reality,6,6,6,1.0,1.0,1137.0,3
S005,Opposite-sex_couple_035_h,12.0,2.0,6438.0,blue,Reality,3,4,4,1.0,1.0,1915.0,0
S005,Opposite-sex_couple_017_v,13.0,2.0,5628.0,red,Fiction,2,2,2,1.0,1.0,1014.0,3
S005,Male_019_h,14.0,2.0,4440.0,blue,Reality,0,0,0,1.0,1.0,1071.0,3
S005,Male_023_v,15.0,2.0,7746.0,red,Fiction,2,4,3,1.0,1.0,2668.0,3
S005,Opposite-sex_couple_009_h,16.0,2.0,6840.0,red,Fiction,6,6,6,1.0,1.0,1177.0,3
S005,Male_012_h,17.0,2.0,4748.0,blue,Reality,0,0,0,1.0,1.0,1893.0,-2
S005,Opposite-sex_couple_048_h,18.0,2.0,6846.0,blue,Reality,4,3,4,1.0,1.0,1554.0,3
S005,Opposite-sex_couple_001_v,19.0,2.0,5928.0,red,Fiction,2,2,2,1.0,1.0,1829.0,-3
S005,Opposite-sex_couple_018_h,20.0,2.0,7976.0,blue,Reality,6,6,6,1.0,1.0,2002.0,3
S005,Opposite-sex_couple_025_h,21.0,2.0,4903.0,red,Fiction,6,6,6,1.0,1.0,3172.0,3
S005,Male_006_v,22.0,2.0,4065.0,blue,Reality,0,0,0,1.0,1.0,1612.0,3
S005,Male_024_h,23.0,2.0,4535.0,red,Fiction,1,3,2,1.0,1.0,3354.0,-3
S005,Opposite-sex_couple_012_h,24.0,2.0,5070.0,blue,Reality,6,6,6,1.0,1.0,1317.0,3
S005,Male_021_h,25.0,2.0,3808.0,red,Fiction,0,0,0,1.0,1.0,2815.0,3
S005,Opposite-sex_couple_014_h,26.0,2.0,5984.0,blue,Reality,2,2,2,1.0,1.0,1553.0,3
S005,Opposite-sex_couple_019_v,27.0,2.0,8552.0,red,Fiction,0,5,4,1.0,1.0,1965.0,-3
S005,Male_001_v,28.0,2.0,5456.0,red,Fiction,0,0,0,1.0,1.0,1006.0,0
S005,Male_010_v,29.0,2.0,7312.0,red,Fiction,0,4,2,1.0,1.0,1149.0,3
S005,Male_014_v,30.0,2.0,5172.0,blue,Reality,3,3,4,1.0,1.0,2020.0,0
S005,Male_020_v,31.0,2.0,5077.0,blue,Reality,0,0,0,1.0,1.0,3746.0,-3
S005,Male_011_v,32.0,2.0,3789.0,red,Fiction,0,0,0,1.0,1.0,2021.0,1
S005,Male_025_v,33.0,2.0,4365.0,red,Fiction,0,0,0,1.0,1.0,2374.0,3
S005,Male_016_v,34.0,2.0,3834.0,blue,Reality,0,0,0,1.0,1.0,1623.0,3
S005,Opposite-sex_couple_013_h,35.0,2.0,5382.0,blue,Reality,0,0,0,1.0,1.0,1838.0,3
S005,Male_003_v,36.0,2.0,6170.0,blue,Reality,2,5,3,1.0,1.0,1832.0,2
S005,Opposite-sex_couple_020_h,37.0,2.0,5177.0,red,Fiction,5,5,4,1.0,1.0,1979.0,-3
S005,Opposite-sex_couple_005_h,38.0,2.0,5396.0,red,Fiction,6,6,6,1.0,1.0,1183.0,3
S005,Opposite-sex_couple_002_h,39.0,2.0,6653.0,red,Fiction,6,6,6,1.0,1.0,1316.0,3
S005,Male_013_v,40.0,2.0,3821.0,blue,Reality,0,0,0,1.0,1.0,1155.0,3
S005,Opposite-sex_couple_042_h,41.0,2.0,7267.0,red,Fiction,0,4,4,1.0,1.0,1882.0,3
S005,Opposite-sex_couple_022_v,42.0,2.0,4515.0,blue,Reality,0,0,0,1.0,1.0,1000.0,3
S005,Male_018_v,43.0,2.0,4513.0,blue,Reality,0,0,0,1.0,1.0,1873.0,0
S005,Male_009_v,44.0,2.0,6740.0,red,Fiction,2,5,3,1.0,1.0,1836.0,0
S005,Opposite-sex_couple_023_h,45.0,2.0,4118.0,blue,Reality,0,0,0,1.0,1.0,1226.0,0
S005,Opposite-sex_couple_024_h,46.0,2.0,5333.0,red,Fiction,0,0,0,1.0,1.0,1800.0,3
S005,Opposite-sex_couple_015_h,47.0,2.0,7649.0,red,Fiction,3,2,2,1.0,1.0,2144.0,3
S005,Opposite-sex_couple_011_h,48.0,2.0,4089.0,red,Fiction,3,2,2,1.0,1.0,1001.0,3
S005,Opposite-sex_couple_007_h,49.0,2.0,6768.0,blue,Reality,0,2,2,1.0,1.0,1382.0,3
S005,Male_015_v,50.0,2.0,4150.0,blue,Reality,0,0,0,1.0,1.0,1540.0,0
S018,Male_017_v,1.0,2.0,12307.0,red,Fiction,5,6,4,1.0,1.0,1960.0,-3
S018,Opposite-sex_couple_009_h,2.0,2.0,9287.0,red,Fiction,3,5,4,1.0,1.0,2030.0,3
S018,Male_014_v,3.0,2.0,11499.0,red,Fiction,3,5,6,1.0,1.0,1570.0,-2
S018,Opposite-sex_couple_020_h,4.0,2.0,9433.0,blue,Reality,2,3,3,1.0,1.0,1412.0,-3
S018,Male_011_v,5.0,2.0,9614.0,blue,Reality,0,2,2,1.0,1.0,3472.0,-2
S018,Male_022_v,6.0,2.0,11514.0,red,Fiction,3,5,4,1.0,1.0,3541.0,-3
S018,Male_023_v,7.0,2.0,7511.0,blue,Reality,3,3,2,1.0,1.0,1994.0,-3
S018,Opposite-sex_couple_022_v,8.0,2.0,6990.0,blue,Reality,1,1,2,1.0,1.0,2024.0,3
S018,Opposite-sex_couple_024_h,9.0,2.0,8213.0,blue,Reality,0,1,0,1.0,1.0,2256.0,-3
S018,Opposite-sex_couple_018_h,10.0,2.0,17093.0,red,Fiction,4,4,5,1.0,1.0,2282.0,3
S018,Male_018_v,11.0,2.0,9035.0,red,Fiction,1,0,1,1.0,1.0,2635.0,-3
S018,Opposite-sex_couple_019_v,12.0,2.0,7950.0,red,Fiction,0,0,4,1.0,1.0,1497.0,-3
S018,Opposite-sex_couple_014_h,13.0,2.0,12621.0,blue,Reality,1,3,3,1.0,1.0,2870.0,0
S018,Opposite-sex_couple_025_h,14.0,2.0,13312.0,blue,Reality,3,5,4,1.0,1.0,1401.0,-3
S018,Male_013_v,15.0,2.0,9534.0,blue,Reality,1,2,3,1.0,1.0,2104.0,-1
S018,Opposite-sex_couple_017_v,16.0,2.0,6874.0,blue,Reality,2,3,3,1.0,1.0,2795.0,3
S018,Opposite-sex_couple_048_h,17.0,2.0,6601.0,red,Fiction,1,4,3,1.0,1.0,3381.0,3
S018,Opposite-sex_couple_007_h,18.0,2.0,7461.0,red,Fiction,0,1,1,1.0,1.0,1923.0,-2
S018,Opposite-sex_couple_035_h,19.0,2.0,9535.0,blue,Reality,1,0,2,1.0,1.0,1845.0,3
S018,Male_016_v,20.0,2.0,12601.0,blue,Reality,4,4,4,1.0,1.0,1687.0,-3
S018,Male_003_v,21.0,2.0,10849.0,blue,Reality,1,5,3,1.0,1.0,2270.0,3
S018,Male_009_v,22.0,2.0,11096.0,blue,Reality,0,2,3,1.0,1.0,1551.0,-3
S018,Male_019_h,23.0,2.0,6803.0,blue,Reality,3,5,4,1.0,1.0,2756.0,3
S018,Opposite-sex_couple_042_h,24.0,2.0,6766.0,red,Fiction,0,1,3,1.0,1.0,3496.0,2
S018,Male_012_h,25.0,2.0,11149.0,red,Fiction,2,4,4,1.0,1.0,1883.0,-3
S018,Male_006_v,26.0,2.0,9089.0,blue,Reality,4,5,3,1.0,1.0,2265.0,2
S018,Male_015_v,27.0,2.0,7080.0,red,Fiction,0,2,2,1.0,1.0,2148.0,2
S018,Male_024_h,28.0,2.0,6134.0,blue,Reality,2,3,3,1.0,1.0,1562.0,-3
S018,Opposite-sex_couple_011_h,29.0,2.0,6488.0,red,Fiction,0,1,0,1.0,1.0,1186.0,-3
S018,Male_020_v,30.0,2.0,6467.0,red,Fiction,1,2,2,1.0,1.0,2000.0,-3
S018,Male_005_v,31.0,2.0,10183.0,blue,Reality,1,3,3,1.0,1.0,2458.0,-3
S018,Opposite-sex_couple_013_h,32.0,2.0,7374.0,red,Fiction,0,3,3,1.0,1.0,2299.0,-3
S018,Opposite-sex_couple_015_h,33.0,2.0,8259.0,red,Fiction,1,1,2,1.0,1.0,1765.0,-3
S018,Opposite-sex_couple_005_h,34.0,2.0,9092.0,red,Fiction,4,4,5,1.0,1.0,1600.0,-3
S018,Male_010_v,35.0,2.0,6218.0,red,Fiction,0,1,2,1.0,1.0,2198.0,-2
S018,Male_002_v,36.0,2.0,7417.0,red,Fiction,1,1,3,1.0,1.0,2752.0,-2
S018,Male_007_h,37.0,2.0,6841.0,red,Fiction,0,1,2,1.0,1.0,2769.0,1
S018,Opposite-sex_couple_016_v,38.0,2.0,10809.0,blue,Reality,0,0,2,1.0,1.0,2242.0,-1
S018,Male_008_v,39.0,2.0,10934.0,red,Fiction,2,4,3,1.0,1.0,2308.0,-2
S018,Opposite-sex_couple_012_h,40.0,2.0,6556.0,red,Fiction,5,6,5,1.0,1.0,1460.0,-3
S018,Male_004_v,41.0,2.0,7825.0,blue,Reality,4,4,4,1.0,1.0,1845.0,3
S018,Opposite-sex_couple_002_h,42.0,2.0,7929.0,red,Fiction,1,3,2,1.0,1.0,1723.0,-3
S018,Opposite-sex_couple_001_v,43.0,2.0,13472.0,blue,Reality,1,2,3,1.0,1.0,1393.0,-3
S018,Opposite-sex_couple_047_v,44.0,2.0,8049.0,blue,Reality,0,0,3,1.0,1.0,2624.0,3
S018,Male_025_v,45.0,2.0,6507.0,red,Fiction,0,0,1,1.0,1.0,5120.0,3
S018,Opposite-sex_couple_023_h,46.0,2.0,8098.0,blue,Reality,1,2,3,1.0,1.0,1487.0,-3
S018,Opposite-sex_couple_033_v,47.0,2.0,7265.0,blue,Reality,1,2,3,1.0,1.0,1541.0,3
S018,Opposite-sex_couple_008_h,48.0,2.0,6699.0,blue,Reality,6,6,6,1.0,1.0,2153.0,2
S018,Male_001_v,49.0,2.0,10028.0,blue,Reality,0,2,3,1.0,1.0,1626.0,2
S018,Male_021_h,50.0,2.0,7762.0,blue,Reality,1,3,4,1.0,1.0,1375.0,-3
S023,Male_018_v,1.0,2.0,4030.0,green,Fiction,0,0,0,1.0,1.0,839.0,-3
S023,Opposite-sex_couple_011_h,2.0,2.0,4262.0,blue,Reality,1,2,1,1.0,1.0,772.0,1
S023,Opposite-sex_couple_009_h,3.0,2.0,9350.0,green,Fiction,4,4,5,1.0,1.0,1217.0,1
S023,Male_009_v,4.0,2.0,4908.0,green,Fiction,0,0,0,1.0,1.0,1647.0,1
S023,Opposite-sex_couple_002_h,5.0,2.0,3940.0,green,Fiction,4,5,5,1.0,1.0,949.0,1
S023,Male_011_v,6.0,2.0,2703.0,green,Fiction,0,0,0,1.0,1.0,972.0,2
S023,Male_010_v,7.0,2.0,5857.0,green,Fiction,2,3,1,1.0,1.0,887.0,-1
S023,Male_021_h,8.0,2.0,5727.0,blue,Reality,1,2,0,1.0,1.0,1298.0,-2
S023,Male_004_v,9.0,2.0,3838.0,green,Fiction,4,5,2,1.0,1.0,1186.0,1
S023,Opposite-sex_couple_018_h,10.0,2.0,7272.0,blue,Reality,2,0,0,1.0,1.0,1004.0,0
S023,Male_020_v,11.0,2.0,3152.0,blue,Reality,1,1,1,1.0,1.0,1260.0,-3
S023,Male_001_v,12.0,2.0,2548.0,blue,Reality,0,0,0,1.0,1.0,1036.0,1
S023,Opposite-sex_couple_008_h,13.0,2.0,3509.0,blue,Reality,3,4,3,1.0,1.0,809.0,-1
S023,Male_016_v,14.0,2.0,3607.0,green,Fiction,0,0,2,1.0,1.0,1123.0,-2
S023,Male_014_v,15.0,2.0,4498.0,green,Fiction,0,0,0,1.0,1.0,1051.0,-2
S023,Opposite-sex_couple_013_h,16.0,2.0,2954.0,blue,Reality,0,0,0,1.0,1.0,1217.0,-2
S023,Opposite-sex_couple_042_h,17.0,2.0,2533.0,green,Fiction,4,5,5,1.0,1.0,995.0,-1
S023,Male_002_v,18.0,2.0,3914.0,green,Fiction,0,2,0,1.0,1.0,803.0,0
S023,Opposite-sex_couple_024_h,19.0,2.0,3669.0,green,Fiction,0,0,0,1.0,1.0,1228.0,-1
S023,Opposite-sex_couple_023_h,20.0,2.0,3587.0,blue,Reality,2,1,2,1.0,1.0,784.0,2
S023,Opposite-sex_couple_016_v,21.0,2.0,2509.0,green,Fiction,0,0,2,1.0,1.0,1197.0,1
S023,Male_019_h,22.0,2.0,3785.0,blue,Reality,0,0,3,1.0,1.0,1174.0,-1
S023,Opposite-sex_couple_048_h,23.0,2.0,3732.0,green,Fiction,0,0,3,1.0,1.0,1787.0,2
S023,Male_008_v,24.0,2.0,2599.0,blue,Reality,0,0,0,1.0,1.0,1066.0,-3
S023,Male_017_v,25.0,2.0,4296.0,green,Fiction,0,0,0,1.0,1.0,3158.0,-2
S023,Male_007_h,26.0,2.0,3562.0,green,Fiction,1,0,0,1.0,1.0,892.0,1
S023,Male_006_v,27.0,2.0,2879.0,blue,Reality,0,0,0,1.0,1.0,833.0,1
S023,Opposite-sex_couple_001_v,28.0,2.0,2400.0,blue,Reality,2,2,2,1.0,1.0,1014.0,2
S023,Male_003_v,29.0,2.0,3113.0,blue,Reality,0,0,3,1.0,1.0,1524.0,0
S023,Male_015_v,30.0,2.0,2731.0,blue,Reality,0,0,4,1.0,1.0,1366.0,2
S023,Male_025_v,31.0,2.0,2937.0,green,Fiction,0,0,2,1.0,1.0,1051.0,2
S023,Opposite-sex_couple_035_h,32.0,2.0,4226.0,blue,Reality,2,3,4,1.0,1.0,1105.0,0
S023,Opposite-sex_couple_005_h,33.0,2.0,3694.0,green,Fiction,0,0,0,1.0,1.0,2029.0,-3
S023,Opposite-sex_couple_025_h,34.0,2.0,3441.0,blue,Reality,0,0,0,1.0,1.0,1838.0,-1
S023,Opposite-sex_couple_012_h,35.0,2.0,2728.0,blue,Reality,0,0,0,1.0,1.0,1250.0,0
S023,Opposite-sex_couple_007_h,36.0,2.0,3556.0,green,Fiction,3,3,3,1.0,1.0,1089.0,1
S023,Opposite-sex_couple_014_h,37.0,2.0,11070.0,blue,Reality,0,0,0,1.0,1.0,1111.0,2
S023,Opposite-sex_couple_033_v,38.0,2.0,4010.0,blue,Reality,0,2,3,1.0,1.0,1327.0,3
S023,Male_023_v,39.0,2.0,2877.0,blue,Reality,3,4,4,1.0,1.0,2053.0,2
S023,Opposite-sex_couple_015_h,40.0,2.0,2970.0,blue,Reality,2,2,5,1.0,1.0,903.0,1
S023,Opposite-sex_couple_020_h,41.0,2.0,2728.0,green,Fiction,3,4,4,1.0,1.0,1639.0,0
S023,Male_024_h,42.0,2.0,3225.0,blue,Reality,4,4,5,1.0,1.0,1284.0,-3
S023,Opposite-sex_couple_019_v,43.0,2.0,4375.0,green,Fiction,2,2,5,1.0,1.0,1242.0,-2
S023,Opposite-sex_couple_022_v,44.0,2.0,6265.0,green,Fiction,1,1,4,1.0,1.0,808.0,1
S023,Male_022_v,45.0,2.0,3857.0,blue,Reality,0,0,0,1.0,1.0,1749.0,-1
S023,Opposite-sex_couple_047_v,46.0,2.0,3573.0,blue,Reality,0,0,0,1.0,1.0,909.0,2
S023,Opposite-sex_couple_017_v,47.0,2.0,2678.0,green,Fiction,0,0,0,1.0,1.0,803.0,2
S023,Male_013_v,48.0,2.0,2795.0,blue,Reality,0,0,0,1.0,1.0,829.0,2
S023,Male_005_v,49.0,2.0,3026.0,green,Fiction,0,0,0,1.0,1.0,1483.0,-1
S023,Male_012_h,50.0,2.0,3293.0,blue,Reality,0,0,3,1.0,1.0,1274.0,-1
S054,Opposite-sex_couple_019_v,1.0,2.0,13571.0,red,Reality,3,4,4,1.0,1.0,1447.0,3
S054,Female_006_v,2.0,2.0,9597.0,red,Reality,4,5,5,1.0,1.0,3539.0,-3
S054,Female_016_h,3.0,2.0,12305.0,red,Reality,4,6,5,1.0,1.0,6384.0,-1
S054,Female_010_h,4.0,2.0,6428.0,red,Reality,5,5,5,1.0,1.0,1468.0,3
S054,Female_014_v,5.0,2.0,10823.0,green,Fiction,4,4,5,1.0,1.0,1887.0,-3
S054,Female_009_h,6.0,2.0,7508.0,green,Fiction,5,5,5,1.0,1.0,3604.0,-2
S054,Female_007_v,7.0,2.0,6786.0,red,Reality,5,5,5,1.0,1.0,4716.0,-2
S054,Female_012_v,8.0,2.0,7110.0,green,Fiction,5,5,6,1.0,1.0,1970.0,3
S054,Opposite-sex_couple_048_h,9.0,2.0,7703.0,red,Reality,5,6,5,1.0,1.0,1816.0,2
S054,Opposite-sex_couple_017_v,10.0,2.0,7000.0,green,Fiction,5,6,5,1.0,1.0,1396.0,3
S054,Opposite-sex_couple_005_h,11.0,2.0,8731.0,green,Fiction,5,6,6,1.0,1.0,1501.0,3
S054,Opposite-sex_couple_035_h,12.0,2.0,9157.0,red,Reality,4,4,4,1.0,1.0,4569.0,2
S054,Opposite-sex_couple_015_h,13.0,2.0,4938.0,red,Reality,5,5,5,1.0,1.0,4152.0,3
S054,Opposite-sex_couple_047_v,14.0,2.0,8765.0,red,Reality,5,6,4,1.0,1.0,1961.0,3
S054,Opposite-sex_couple_042_h,15.0,2.0,10057.0,green,Fiction,3,3,5,1.0,1.0,1357.0,3
S054,Opposite-sex_couple_016_v,16.0,2.0,7404.0,red,Reality,3,3,4,1.0,1.0,3945.0,3
S054,Opposite-sex_couple_018_h,17.0,2.0,18016.0,red,Reality,5,4,4,1.0,1.0,6778.0,2
S054,Opposite-sex_couple_033_v,18.0,2.0,5256.0,red,Reality,5,5,5,1.0,1.0,5726.0,3
S054,Female_018_h,19.0,2.0,6123.0,green,Fiction,5,6,6,1.0,1.0,2007.0,3
S054,Opposite-sex_couple_014_h,20.0,2.0,5716.0,green,Fiction,5,6,6,1.0,1.0,2044.0,3
S054,Female_017_v,21.0,2.0,6627.0,red,Reality,6,6,6,1.0,1.0,1623.0,2
S054,Opposite-sex_couple_011_h,22.0,2.0,7763.0,green,Fiction,3,4,3,1.0,1.0,2732.0,-1
S054,Female_011_h,23.0,2.0,11331.0,green,Fiction,5,5,5,1.0,1.0,2272.0,-2
S054,Female_023_h,24.0,2.0,7534.0,red,Reality,6,6,5,1.0,1.0,10879.0,2
S054,Opposite-sex_couple_023_h,25.0,2.0,5999.0,green,Fiction,5,5,5,1.0,1.0,1038.0,3
S054,Opposite-sex_couple_009_h,26.0,2.0,5060.0,green,Fiction,5,5,5,1.0,1.0,6021.0,2
S054,Opposite-sex_couple_001_v,27.0,2.0,6961.0,green,Fiction,4,4,5,1.0,1.0,4053.0,3
S054,Opposite-sex_couple_002_h,28.0,2.0,8604.0,red,Reality,2,4,5,1.0,1.0,8071.0,3
S054,Female_025_h,29.0,2.0,5818.0,red,Reality,4,5,5,1.0,1.0,5437.0,2
S054,Opposite-sex_couple_020_h,30.0,2.0,7266.0,green,Fiction,5,5,5,1.0,1.0,1743.0,3
S054,Female_008_v,31.0,2.0,5324.0,red,Reality,4,5,4,1.0,1.0,2052.0,3
S054,Female_005_v,32.0,2.0,10149.0,green,Fiction,4,4,4,1.0,1.0,2398.0,3
S054,Female_013_h,33.0,2.0,7334.0,red,Reality,5,5,5,1.0,1.0,2237.0,-2
S054,Opposite-sex_couple_025_h,34.0,2.0,6145.0,green,Fiction,6,6,6,1.0,1.0,2591.0,3
S054,Opposite-sex_couple_008_h,35.0,2.0,5409.0,red,Reality,6,6,6,1.0,1.0,4431.0,1
S054,Female_022_h,36.0,2.0,6162.0,green,Fiction,6,6,6,1.0,1.0,3373.0,3
S054,Opposite-sex_couple_022_v,37.0,2.0,7072.0,red,Reality,4,5,4,1.0,1.0,3090.0,2
S054,Female_015_v,38.0,2.0,5884.0,red,Reality,5,4,5,1.0,1.0,2103.0,-3
S054,Female_019_h,39.0,2.0,4403.0,green,Fiction,6,6,6,1.0,1.0,3314.0,3
S054,Opposite-sex_couple_012_h,40.0,2.0,7358.0,red,Reality,3,4,6,1.0,1.0,2803.0,3
S054,Opposite-sex_couple_013_h,41.0,2.0,11103.0,green,Fiction,0,2,2,1.0,1.0,3240.0,3
S054,Female_024_v,42.0,2.0,7623.0,red,Reality,5,6,6,1.0,1.0,2461.0,-2
S054,Female_020_v,43.0,2.0,6373.0,green,Fiction,5,6,6,1.0,1.0,3372.0,3
S054,Female_021_h,44.0,2.0,4559.0,green,Fiction,6,6,6,1.0,1.0,2167.0,3
S054,Female_002_h,45.0,2.0,5393.0,red,Reality,6,6,6,1.0,1.0,3010.0,3
S054,Female_004_v,46.0,2.0,5227.0,green,Fiction,4,5,4,1.0,1.0,1718.0,-3
S054,Opposite-sex_couple_024_h,47.0,2.0,7622.0,green,Fiction,4,5,5,1.0,1.0,1573.0,3
S054,Female_003_v,48.0,2.0,5039.0,red,Reality,5,5,5,1.0,1.0,1914.0,-3
S054,Female_001_h,49.0,2.0,5358.0,green,Fiction,4,4,4,1.0,1.0,2005.0,2
S054,Opposite-sex_couple_007_h,50.0,2.0,6923.0,red,Reality,4,5,4,1.0,1.0,1784.0,3
S063,Opposite-sex_couple_012_h,1.0,2.0,20985.0,blue,Fiction,2,3,3,1.0,1.0,1483.0,-3
S063,Opposite-sex_couple_033_v,2.0,2.0,14279.0,blue,Fiction,4,3,5,1.0,1.0,1950.0,2
S063,Male_012_h,3.0,2.0,11386.0,blue,Fiction,3,5,4,1.0,1.0,2736.0,-1
S063,Opposite-sex_couple_022_v,4.0,2.0,13999.0,red,Reality,6,4,4,1.0,1.0,3554.0,2
S063,Opposite-sex_couple_015_h,5.0,2.0,9453.0,red,Reality,5,4,3,1.0,1.0,1269.0,3
S063,Opposite-sex_couple_005_h,6.0,2.0,7671.0,blue,Fiction,6,5,3,1.0,1.0,978.0,-3
S063,Male_015_v,7.0,2.0,7240.0,red,Reality,0,1,2,1.0,1.0,1378.0,-1
S063,Opposite-sex_couple_024_h,8.0,2.0,7029.0,red,Reality,3,2,4,1.0,1.0,1429.0,2
S063,Opposite-sex_couple_013_h,9.0,2.0,4990.0,red,Reality,0,1,1,1.0,1.0,2110.0,-3
S063,Male_022_v,10.0,2.0,4128.0,blue,Fiction,0,3,2,1.0,1.0,1114.0,-3
S063,Opposite-sex_couple_001_v,11.0,2.0,5699.0,blue,Fiction,4,3,4,1.0,1.0,1016.0,3
S063,Opposite-sex_couple_020_h,12.0,2.0,6874.0,blue,Fiction,4,3,4,1.0,1.0,1312.0,1
S063,Opposite-sex_couple_042_h,13.0,2.0,2980.0,blue,Fiction,3,2,2,1.0,1.0,865.0,3
S063,Opposite-sex_couple_014_h,14.0,2.0,5689.0,red,Reality,4,4,3,1.0,1.0,1897.0,3
S063,Male_006_v,15.0,2.0,3087.0,red,Reality,0,0,0,1.0,1.0,1295.0,-3
S063,Opposite-sex_couple_019_v,16.0,2.0,6851.0,red,Reality,1,2,1,1.0,1.0,1646.0,-2
S063,Male_008_v,17.0,2.0,2946.0,blue,Fiction,0,0,0,1.0,1.0,1084.0,-3
S063,Male_018_v,18.0,2.0,1995.0,red,Reality,0,1,0,1.0,1.0,989.0,3
S063,Male_010_v,19.0,2.0,2325.0,red,Reality,0,0,0,1.0,1.0,1358.0,-3
S063,Opposite-sex_couple_018_h,20.0,2.0,4895.0,red,Reality,5,3,4,1.0,1.0,2217.0,-2
S063,Male_020_v,21.0,2.0,3937.0,red,Reality,0,0,0,1.0,1.0,1259.0,2
S063,Opposite-sex_couple_008_h,22.0,2.0,3712.0,red,Reality,5,4,3,1.0,1.0,9344.0,2
S063,Opposite-sex_couple_048_h,23.0,2.0,3361.0,blue,Fiction,0,1,0,1.0,1.0,1457.0,2
S063,Opposite-sex_couple_017_v,24.0,2.0,4078.0,blue,Fiction,1,1,1,1.0,1.0,1381.0,0
S063,Opposite-sex_couple_002_h,25.0,2.0,2606.0,red,Reality,1,2,1,1.0,1.0,1050.0,3
S063,Opposite-sex_couple_009_h,26.0,2.0,7760.0,red,Reality,3,4,3,1.0,1.0,1000.0,3
S063,Male_025_v,27.0,2.0,2252.0,red,Reality,0,0,0,1.0,1.0,1053.0,3
S063,Opposite-sex_couple_025_h,28.0,2.0,2978.0,blue,Fiction,1,2,1,1.0,1.0,2280.0,0
S063,Male_009_v,29.0,2.0,3084.0,blue,Fiction,1,1,1,1.0,1.0,1238.0,2
S063,Male_023_v,30.0,2.0,3384.0,blue,Fiction,0,0,0,1.0,1.0,1191.0,3
S063,Male_007_h,31.0,2.0,2536.0,blue,Fiction,0,0,0,1.0,1.0,2148.0,-1
S063,Male_005_v,32.0,2.0,2366.0,red,Reality,0,0,0,1.0,1.0,1732.0,0
S063,Opposite-sex_couple_007_h,33.0,2.0,2248.0,red,Reality,4,4,4,1.0,1.0,1095.0,3
S063,Male_003_v,34.0,2.0,2332.0,red,Reality,0,0,0,1.0,1.0,845.0,3
S063,Male_004_v,35.0,2.0,2887.0,red,Reality,1,2,2,1.0,1.0,1943.0,3
S063,Male_016_v,36.0,2.0,2284.0,blue,Fiction,0,0,0,1.0,1.0,2945.0,3
S063,Male_021_h,37.0,2.0,2318.0,red,Reality,1,2,1,1.0,1.0,2113.0,3
S063,Opposite-sex_couple_016_v,38.0,2.0,2234.0,red,Reality,5,4,5,1.0,1.0,908.0,3
S063,Opposite-sex_couple_023_h,39.0,2.0,3601.0,blue,Fiction,2,4,3,1.0,1.0,3159.0,3
S063,Opposite-sex_couple_035_h,40.0,2.0,3076.0,red,Reality,4,4,4,1.0,1.0,2824.0,2
S063,Male_024_h,41.0,2.0,3696.0,red,Reality,2,4,4,1.0,1.0,1172.0,-3
S063,Male_017_v,42.0,2.0,2267.0,red,Reality,1,0,0,1.0,1.0,1350.0,0
S063,Male_014_v,43.0,2.0,3398.0,blue,Fiction,5,5,5,1.0,1.0,1498.0,-2
S063,Opposite-sex_couple_047_v,44.0,2.0,2326.0,blue,Fiction,4,3,4,1.0,1.0,1128.0,3
S063,Opposite-sex_couple_011_h,45.0,2.0,3432.0,blue,Fiction,6,5,6,1.0,1.0,847.0,3
S063,Male_011_v,46.0,2.0,2344.0,blue,Fiction,3,2,3,1.0,1.0,1199.0,1
S063,Male_019_h,47.0,2.0,2475.0,blue,Fiction,1,2,4,1.0,1.0,1298.0,3
S063,Male_013_v,48.0,2.0,2064.0,blue,Fiction,0,0,0,1.0,1.0,1505.0,3
S063,Male_002_v,49.0,2.0,2529.0,red,Reality,1,3,2,1.0,1.0,2005.0,3
S063,Male_001_v,50.0,2.0,3442.0,blue,Fiction,1,3,2,1.0,1.0,1144.0,-3
S052,Male_008_v,1.0,2.0,15552.0,green,Reality,0,0,0,1.0,1.0,5812.0,-1
S052,Opposite-sex_couple_008_h,2.0,2.0,54456.0,blue,Fiction,0,2,1,1.0,1.0,2165.0,-3
S052,Opposite-sex_couple_002_h,3.0,2.0,19579.0,green,Reality,0,0,0,1.0,1.0,2786.0,0
S052,Male_003_v,4.0,2.0,17196.0,blue,Fiction,0,4,3,1.0,1.0,3874.0,3
S052,Male_007_h,5.0,2.0,15415.0,green,Reality,0,1,0,1.0,1.0,4935.0,0
S052,Opposite-sex_couple_047_v,6.0,2.0,18011.0,green,Reality,0,2,0,1.0,1.0,3732.0,3
S052,Male_004_v,7.0,2.0,14620.0,blue,Fiction,0,5,1,1.0,1.0,10811.0,2
S052,Male_025_v,8.0,2.0,5607.0,green,Reality,0,0,0,1.0,1.0,2940.0,0
S052,Male_005_v,9.0,2.0,8253.0,green,Reality,0,0,0,1.0,1.0,2860.0,1
S052,Male_014_v,10.0,2.0,16713.0,blue,Fiction,0,1,0,1.0,1.0,1933.0,-2
S052,Opposite-sex_couple_014_h,11.0,2.0,14568.0,blue,Fiction,0,1,0,1.0,1.0,2864.0,-3
S052,Male_002_v,12.0,2.0,9293.0,blue,Fiction,0,4,1,1.0,1.0,24821.0,2
S052,Opposite-sex_couple_042_h,13.0,2.0,12240.0,green,Reality,0,6,2,1.0,1.0,2408.0,3
S052,Male_016_v,14.0,2.0,24494.0,green,Reality,0,2,1,1.0,1.0,3902.0,-3
S052,Opposite-sex_couple_025_h,15.0,2.0,18131.0,blue,Fiction,0,2,0,1.0,1.0,2654.0,1
S052,Male_015_v,16.0,2.0,7668.0,blue,Fiction,0,0,0,1.0,1.0,3342.0,0
S052,Opposite-sex_couple_012_h,17.0,2.0,17734.0,blue,Fiction,0,1,0,1.0,1.0,2952.0,2
S052,Opposite-sex_couple_016_v,18.0,2.0,8699.0,green,Reality,0,3,1,1.0,1.0,3113.0,-2
S052,Opposite-sex_couple_019_v,19.0,2.0,8271.0,green,Reality,0,6,2,1.0,1.0,2257.0,-3
S052,Male_024_h,20.0,2.0,14006.0,blue,Fiction,0,5,3,1.0,1.0,3669.0,0
S052,Opposite-sex_couple_033_v,21.0,2.0,11279.0,blue,Fiction,0,4,3,1.0,1.0,1624.0,2
S052,Opposite-sex_couple_009_h,22.0,2.0,6864.0,green,Reality,0,5,4,1.0,1.0,3888.0,3
S052,Opposite-sex_couple_020_h,23.0,2.0,9504.0,green,Reality,1,4,3,1.0,1.0,2125.0,-3
S052,Male_022_v,24.0,2.0,15273.0,blue,Fiction,1,4,3,1.0,1.0,5149.0,-2
S052,Male_021_h,25.0,2.0,6704.0,blue,Fiction,0,3,3,1.0,1.0,8077.0,0
S052,Opposite-sex_couple_013_h,26.0,2.0,9789.0,blue,Fiction,0,3,1,1.0,1.0,11331.0,0
S052,Opposite-sex_couple_048_h,27.0,2.0,8696.0,blue,Fiction,0,2,3,1.0,1.0,4367.0,-1
S052,Opposite-sex_couple_005_h,28.0,2.0,15295.0,green,Reality,0,2,1,1.0,1.0,2606.0,2
S052,Opposite-sex_couple_023_h,29.0,2.0,26090.0,blue,Fiction,0,2,0,1.0,1.0,4723.0,2
S052,Opposite-sex_couple_017_v,30.0,2.0,13617.0,green,Reality,0,1,3,1.0,1.0,3748.0,2
S052,Male_012_h,31.0,2.0,12411.0,blue,Fiction,0,2,1,1.0,1.0,3177.0,-2
S052,Male_023_v,32.0,2.0,13500.0,green,Reality,0,1,1,1.0,1.0,2942.0,3
S052,Opposite-sex_couple_035_h,33.0,2.0,16478.0,blue,Fiction,0,1,5,1.0,1.0,2920.0,1
S052,Male_017_v,34.0,2.0,7756.0,green,Reality,0,1,5,1.0,1.0,1940.0,0
S052,Male_010_v,35.0,2.0,19245.0,blue,Fiction,0,1,1,1.0,1.0,2814.0,2
S052,Male_020_v,36.0,2.0,5724.0,blue,Fiction,0,1,1,1.0,1.0,1605.0,-3
S052,Opposite-sex_couple_001_v,37.0,2.0,10356.0,green,Reality,0,1,0,1.0,1.0,1977.0,-3
S052,Opposite-sex_couple_007_h,38.0,2.0,9831.0,green,Reality,0,1,0,1.0,1.0,2486.0,3
S052,Male_009_v,39.0,2.0,11358.0,blue,Fiction,0,4,1,1.0,1.0,4377.0,1
S052,Opposite-sex_couple_024_h,40.0,2.0,13463.0,blue,Fiction,1,2,1,1.0,1.0,5094.0,2
S052,Male_011_v,41.0,2.0,7204.0,green,Reality,0,2,0,1.0,1.0,14177.0,0
S052,Male_019_h,42.0,2.0,16318.0,green,Reality,2,5,2,1.0,1.0,2271.0,3
S052,Opposite-sex_couple_011_h,43.0,2.0,11596.0,blue,Fiction,0,3,1,1.0,1.0,3175.0,0
S052,Male_013_v,44.0,2.0,16126.0,green,Reality,0,1,0,1.0,1.0,2877.0,-2
S052,Male_018_v,45.0,2.0,6746.0,green,Reality,0,2,0,1.0,1.0,3107.0,-1
S052,Opposite-sex_couple_015_h,46.0,2.0,10627.0,blue,Fiction,0,1,0,1.0,1.0,8537.0,2
S052,Opposite-sex_couple_018_h,47.0,2.0,17411.0,green,Reality,2,4,2,1.0,1.0,3912.0,2
S052,Male_001_v,48.0,2.0,8247.0,green,Reality,0,2,0,1.0,1.0,2904.0,-3
S052,Opposite-sex_couple_022_v,49.0,2.0,7547.0,green,Reality,0,3,0,1.0,1.0,3478.0,2
S052,Male_006_v,50.0,2.0,8973.0,green,Reality,0,3,0,1.0,1.0,4433.0,2
S065,Male_019_h,1.0,2.0,13809.0,green,Reality,1,3,1,1.0,1.0,2574.0,2
S065,Opposite-sex_couple_017_v,2.0,2.0,6759.0,green,Reality,4,5,5,1.0,1.0,2995.0,-2
S065,Male_025_v,3.0,2.0,9479.0,red,Fiction,0,1,1,1.0,1.0,2436.0,2
S065,Male_007_h,4.0,2.0,4931.0,red,Fiction,1,1,1,1.0,1.0,2470.0,-1
S065,Male_010_v,5.0,2.0,6387.0,green,Reality,3,3,4,1.0,1.0,2298.0,2
S065,Opposite-sex_couple_002_h,6.0,2.0,5041.0,green,Reality,5,5,5,1.0,1.0,1835.0,3
S065,Opposite-sex_couple_007_h,7.0,2.0,5171.0,green,Reality,4,3,4,1.0,1.0,1199.0,2
S065,Opposite-sex_couple_013_h,8.0,2.0,5717.0,red,Fiction,2,3,2,1.0,1.0,2233.0,-2
S065,Male_016_v,9.0,2.0,5084.0,green,Reality,2,2,3,1.0,1.0,1290.0,2
S065,Male_014_v,10.0,2.0,5276.0,red,Fiction,5,5,5,1.0,1.0,2072.0,-2
S065,Male_015_v,11.0,2.0,7471.0,green,Reality,4,3,3,1.0,1.0,1674.0,2
S065,Male_008_v,12.0,2.0,6787.0,red,Fiction,2,3,2,1.0,1.0,1489.0,3
S065,Male_022_v,13.0,2.0,5872.0,red,Fiction,4,4,4,1.0,1.0,1741.0,-2
S065,Male_004_v,14.0,2.0,5075.0,green,Reality,2,2,3,1.0,1.0,1869.0,-2
S065,Opposite-sex_couple_035_h,15.0,2.0,4130.0,red,Fiction,3,2,2,1.0,1.0,1250.0,2
S065,Opposite-sex_couple_012_h,16.0,2.0,5200.0,green,Reality,4,5,4,1.0,1.0,2656.0,2
S065,Opposite-sex_couple_020_h,17.0,2.0,5471.0,green,Reality,5,4,5,1.0,1.0,1972.0,-1
S065,Opposite-sex_couple_042_h,18.0,2.0,5311.0,red,Fiction,3,2,3,1.0,1.0,1795.0,3
S065,Opposite-sex_couple_023_h,19.0,2.0,5341.0,green,Reality,5,5,5,1.0,1.0,987.0,2
S065,Opposite-sex_couple_047_v,20.0,2.0,5634.0,green,Reality,3,3,3,1.0,1.0,2843.0,2
S065,Male_017_v,21.0,2.0,6974.0,green,Reality,2,2,3,1.0,1.0,1465.0,2
S065,Male_018_v,22.0,2.0,5337.0,green,Reality,2,2,2,1.0,1.0,2034.0,2
S065,Male_006_v,23.0,2.0,5200.0,red,Fiction,2,2,2,1.0,1.0,2127.0,2
S065,Male_005_v,24.0,2.0,6039.0,red,Fiction,3,4,4,1.0,1.0,1868.0,-2
S065,Opposite-sex_couple_018_h,25.0,2.0,5179.0,red,Fiction,5,5,5,1.0,1.0,1928.0,2
S065,Opposite-sex_couple_015_h,26.0,2.0,5947.0,red,Fiction,3,2,2,1.0,1.0,1332.0,2
S065,Opposite-sex_couple_016_v,27.0,2.0,4707.0,green,Reality,4,3,4,1.0,1.0,1636.0,-2
S065,Male_011_v,28.0,2.0,4993.0,green,Reality,1,1,0,1.0,1.0,1207.0,2
S065,Opposite-sex_couple_014_h,29.0,2.0,5640.0,red,Fiction,2,2,2,1.0,1.0,1465.0,-2
S065,Opposite-sex_couple_009_h,30.0,2.0,4779.0,green,Reality,4,5,4,1.0,1.0,3318.0,2
S065,Opposite-sex_couple_024_h,31.0,2.0,5497.0,green,Reality,3,4,3,1.0,1.0,2239.0,-2
S065,Opposite-sex_couple_005_h,32.0,2.0,5790.0,red,Fiction,5,6,6,1.0,1.0,2143.0,-1
S065,Opposite-sex_couple_025_h,33.0,2.0,7831.0,red,Fiction,5,5,6,1.0,1.0,1465.0,2
S065,Male_021_h,34.0,2.0,5851.0,green,Reality,2,2,2,1.0,1.0,2121.0,-2
S065,Male_024_h,35.0,2.0,5359.0,red,Fiction,3,4,3,1.0,1.0,2433.0,-3
S065,Opposite-sex_couple_019_v,36.0,2.0,5954.0,green,Reality,4,3,1,1.0,1.0,5391.0,2
S065,Opposite-sex_couple_022_v,37.0,2.0,5370.0,red,Fiction,2,3,1,1.0,1.0,1644.0,2
S065,Opposite-sex_couple_048_h,38.0,2.0,6121.0,red,Fiction,2,2,1,1.0,1.0,1651.0,2
S065,Male_012_h,39.0,2.0,4877.0,red,Fiction,3,3,3,1.0,1.0,1187.0,2
S065,Male_002_v,40.0,2.0,5904.0,green,Reality,1,1,1,1.0,1.0,1344.0,-2
S065,Male_003_v,41.0,2.0,7717.0,green,Reality,2,2,2,1.0,1.0,1713.0,-2
S065,Male_001_v,42.0,2.0,5430.0,red,Fiction,2,2,2,1.0,1.0,3017.0,3
S065,Male_020_v,43.0,2.0,4847.0,red,Fiction,3,2,2,1.0,1.0,2019.0,2
S065,Male_013_v,44.0,2.0,4505.0,green,Reality,1,1,1,1.0,1.0,2621.0,-2
S065,Opposite-sex_couple_033_v,45.0,2.0,5136.0,green,Reality,2,1,2,1.0,1.0,2378.0,-1
S065,Opposite-sex_couple_001_v,46.0,2.0,5436.0,red,Fiction,1,1,1,1.0,1.0,1460.0,2
S065,Opposite-sex_couple_008_h,47.0,2.0,5262.0,red,Fiction,3,4,3,1.0,1.0,1099.0,2
S065,Male_009_v,48.0,2.0,5674.0,green,Reality,4,3,2,1.0,1.0,1211.0,-2
S065,Opposite-sex_couple_011_h,49.0,2.0,5718.0,green,Reality,4,4,4,1.0,1.0,1732.0,2
S065,Male_023_v,50.0,2.0,5075.0,red,Fiction,2,2,2,1.0,1.0,1112.0,2
S020,Female_024_v,1.0,2.0,25211.0,red,Reality,3,4,4,1.0,1.0,2022.0,1
S020,Female_007_v,2.0,2.0,8566.0,blue,Fiction,2,3,5,1.0,1.0,1332.0,1
S020,Female_019_h,3.0,2.0,11971.0,red,Reality,5,5,5,1.0,1.0,1747.0,1
S020,Opposite-sex_couple_008_h,4.0,2.0,9261.0,red,Reality,4,5,4,1.0,1.0,1636.0,-1
S020,Opposite-sex_couple_023_h,5.0,2.0,15535.0,red,Reality,3,3,4,1.0,1.0,1807.0,-2
S020,Female_014_v,6.0,2.0,7035.0,red,Reality,3,4,4,1.0,1.0,2153.0,2
S020,Opposite-sex_couple_009_h,7.0,2.0,14342.0,blue,Fiction,4,4,5,1.0,1.0,2573.0,-1
S020,Female_016_h,8.0,2.0,5353.0,blue,Fiction,2,3,3,1.0,1.0,9572.0,-2
S020,Female_004_v,9.0,2.0,14509.0,red,Reality,4,4,5,1.0,1.0,1453.0,2
S020,Opposite-sex_couple_035_h,10.0,2.0,6684.0,blue,Fiction,1,2,3,1.0,1.0,1689.0,-2
S020,Opposite-sex_couple_012_h,11.0,2.0,9372.0,red,Reality,6,6,6,1.0,1.0,2465.0,0
S020,Opposite-sex_couple_020_h,12.0,2.0,8565.0,red,Reality,4,4,6,1.0,1.0,1830.0,2
S020,Female_001_h,13.0,2.0,14628.0,blue,Fiction,4,4,4,1.0,1.0,2547.0,2
S020,Opposite-sex_couple_024_h,14.0,2.0,9083.0,red,Reality,5,6,4,1.0,1.0,7088.0,2
S020,Female_009_h,15.0,2.0,7616.0,red,Reality,5,6,4,1.0,1.0,3811.0,2
S020,Female_006_v,16.0,2.0,6018.0,red,Reality,4,4,5,1.0,1.0,3102.0,-1
S020,Opposite-sex_couple_015_h,17.0,2.0,4936.0,red,Reality,3,4,5,1.0,1.0,2854.0,-3
S020,Opposite-sex_couple_018_h,18.0,2.0,6499.0,red,Reality,5,5,5,1.0,1.0,3608.0,-2
S020,Opposite-sex_couple_014_h,19.0,2.0,10894.0,blue,Fiction,2,1,1,1.0,1.0,4748.0,-3
S020,Opposite-sex_couple_001_v,20.0,2.0,8157.0,blue,Fiction,2,3,4,1.0,1.0,2011.0,-2
S020,Female_020_v,21.0,2.0,7773.0,red,Reality,4,5,4,1.0,1.0,1356.0,2
S020,Female_010_h,22.0,2.0,7671.0,blue,Fiction,3,4,4,1.0,1.0,1725.0,2
S020,Female_017_v,23.0,2.0,8547.0,blue,Fiction,4,3,4,1.0,1.0,2805.0,0
S020,Female_021_h,24.0,2.0,6114.0,red,Reality,5,5,5,1.0,1.0,1800.0,-1
S020,Female_015_v,25.0,2.0,6009.0,red,Reality,3,2,4,1.0,1.0,2851.0,0
S020,Female_005_v,26.0,2.0,5261.0,red,Reality,3,4,5,1.0,1.0,1529.0,2
S020,Opposite-sex_couple_005_h,27.0,2.0,5519.0,red,Reality,6,6,6,1.0,1.0,1616.0,2
S020,Female_013_h,28.0,2.0,7302.0,blue,Fiction,3,3,3,1.0,1.0,2321.0,-1
S020,Opposite-sex_couple_011_h,29.0,2.0,4897.0,red,Reality,2,3,3,1.0,1.0,1864.0,2
S020,Opposite-sex_couple_022_v,30.0,2.0,7750.0,red,Reality,2,2,4,1.0,1.0,3110.0,1
S020,Opposite-sex_couple_048_h,31.0,2.0,5135.0,blue,Fiction,2,3,3,1.0,1.0,2003.0,-1
S020,Opposite-sex_couple_019_v,32.0,2.0,9569.0,blue,Fiction,0,2,4,1.0,1.0,3998.0,-1
S020,Female_011_h,33.0,2.0,6853.0,red,Reality,3,4,4,1.0,1.0,1417.0,-2
S020,Female_008_v,34.0,2.0,6473.0,red,Reality,2,3,4,1.0,1.0,2284.0,2
S020,Female_025_h,35.0,2.0,4778.0,blue,Fiction,3,4,4,1.0,1.0,4696.0,-1
S020,Opposite-sex_couple_016_v,36.0,2.0,4291.0,blue,Fiction,1,2,3,1.0,1.0,2605.0,3
S020,Female_012_v,37.0,2.0,13038.0,blue,Fiction,3,4,5,1.0,1.0,1613.0,2
S020,Opposite-sex_couple_007_h,38.0,2.0,6115.0,blue,Fiction,1,2,4,1.0,1.0,1339.0,-2
S020,Female_003_v,39.0,2.0,8034.0,blue,Fiction,3,4,4,1.0,1.0,2030.0,3
S020,Opposite-sex_couple_042_h,40.0,2.0,6405.0,blue,Fiction,0,1,2,1.0,1.0,1920.0,-3
S020,Opposite-sex_couple_002_h,41.0,2.0,7962.0,red,Reality,3,4,4,1.0,1.0,3392.0,1
S020,Opposite-sex_couple_033_v,42.0,2.0,5965.0,red,Reality,3,4,5,1.0,1.0,3121.0,2
S020,Female_023_h,43.0,2.0,5778.0,blue,Fiction,3,3,3,1.0,1.0,3796.0,1
S020,Female_022_h,44.0,2.0,7955.0,red,Reality,5,6,5,1.0,1.0,1848.0,2
S020,Opposite-sex_couple_025_h,45.0,2.0,7533.0,blue,Fiction,4,4,4,1.0,1.0,13446.0,-1
S020,Opposite-sex_couple_047_v,46.0,2.0,13884.0,blue,Fiction,2,3,3,1.0,1.0,1924.0,0
S020,Female_002_h,47.0,2.0,14389.0,blue,Fiction,3,4,4,1.0,1.0,3222.0,2
S020,Opposite-sex_couple_013_h,48.0,2.0,8552.0,red,Reality,2,2,3,1.0,1.0,3103.0,-2
S020,Opposite-sex_couple_017_v,49.0,2.0,6095.0,blue,Fiction,3,3,4,1.0,1.0,2061.0,2
S020,Female_018_h,50.0,2.0,6272.0,blue,Fiction,3,4,4,1.0,1.0,1392.0,-1
S024,Male_002_v,1.0,2.0,6025.0,red,Fiction,0,3,3,1.0,1.0,924.0,1
S024,Opposite-sex_couple_008_h,2.0,2.0,6669.0,red,Fiction,3,4,3,1.0,1.0,919.0,1
S024,Opposite-sex_couple_047_v,3.0,2.0,4506.0,red,Fiction,1,1,3,1.0,1.0,853.0,2
S024,Male_017_v,4.0,2.0,3998.0,red,Fiction,0,0,1,1.0,1.0,1428.0,-2
S024,Opposite-sex_couple_015_h,5.0,2.0,5096.0,green,Reality,3,4,5,1.0,1.0,1322.0,2
S024,Male_003_v,6.0,2.0,4733.0,red,Fiction,1,1,2,1.0,1.0,953.0,-1
S024,Male_009_v,7.0,2.0,3893.0,green,Reality,0,1,3,1.0,1.0,894.0,2
S024,Male_024_h,8.0,2.0,3623.0,green,Reality,1,3,4,1.0,1.0,2072.0,1
S024,Opposite-sex_couple_005_h,9.0,2.0,3129.0,red,Fiction,0,0,0,1.0,1.0,944.0,-2
S024,Opposite-sex_couple_022_v,10.0,2.0,3945.0,green,Reality,1,2,4,1.0,1.0,1053.0,1
S024,Male_005_v,11.0,2.0,2187.0,red,Fiction,0,0,0,1.0,1.0,895.0,-3
S024,Male_014_v,12.0,2.0,3338.0,red,Fiction,0,0,1,1.0,1.0,844.0,-1
S024,Male_023_v,13.0,2.0,3401.0,green,Reality,0,1,2,1.0,1.0,1169.0,-1
S024,Male_022_v,14.0,2.0,2334.0,green,Reality,0,0,0,1.0,1.0,888.0,-3
S024,Male_006_v,15.0,2.0,2174.0,red,Fiction,0,0,0,1.0,1.0,2760.0,2
S024,Male_021_h,16.0,2.0,3332.0,green,Reality,0,1,4,1.0,1.0,979.0,2
S024,Opposite-sex_couple_011_h,17.0,2.0,3961.0,red,Fiction,1,3,5,1.0,1.0,1064.0,0
S024,Opposite-sex_couple_017_v,18.0,2.0,4005.0,green,Reality,1,4,3,1.0,1.0,1369.0,0
S024,Male_013_v,19.0,2.0,3429.0,green,Reality,0,0,1,1.0,1.0,832.0,1
S024,Opposite-sex_couple_014_h,20.0,2.0,3779.0,green,Reality,0,2,1,1.0,1.0,1337.0,-1
S024,Opposite-sex_couple_018_h,21.0,2.0,4079.0,green,Reality,1,3,2,1.0,1.0,1920.0,0
S024,Male_019_h,22.0,2.0,2905.0,red,Fiction,1,3,4,1.0,1.0,1164.0,2
S024,Opposite-sex_couple_013_h,23.0,2.0,4074.0,green,Reality,0,0,4,1.0,1.0,1237.0,1
S024,Male_025_v,24.0,2.0,3175.0,red,Fiction,0,2,3,1.0,1.0,969.0,1
S024,Opposite-sex_couple_002_h,25.0,2.0,3268.0,green,Reality,0,2,3,1.0,1.0,1023.0,-1
S024,Male_007_h,26.0,2.0,2137.0,green,Reality,0,0,1,1.0,1.0,853.0,1
S024,Opposite-sex_couple_033_v,27.0,2.0,3710.0,red,Fiction,1,2,3,1.0,1.0,1303.0,2
S024,Opposite-sex_couple_001_v,28.0,2.0,4100.0,green,Reality,1,3,4,1.0,1.0,1355.0,0
S024,Opposite-sex_couple_035_h,29.0,2.0,3354.0,green,Reality,1,3,4,1.0,1.0,971.0,1
S024,Opposite-sex_couple_025_h,30.0,2.0,5243.0,red,Fiction,3,4,4,1.0,1.0,1448.0,0
S024,Opposite-sex_couple_007_h,31.0,2.0,3661.0,red,Fiction,2,1,4,1.0,1.0,912.0,2
S024,Male_012_h,32.0,2.0,3475.0,green,Reality,0,0,0,1.0,1.0,949.0,0
S024,Opposite-sex_couple_009_h,33.0,2.0,3123.0,green,Reality,2,4,4,1.0,1.0,790.0,-1
S024,Opposite-sex_couple_024_h,34.0,2.0,2258.0,red,Fiction,0,0,0,1.0,1.0,2242.0,-3
S024,Opposite-sex_couple_016_v,35.0,2.0,2778.0,green,Reality,0,0,3,1.0,1.0,1050.0,-1
S024,Opposite-sex_couple_042_h,36.0,2.0,2505.0,green,Reality,0,0,4,1.0,1.0,1544.0,-1
S024,Male_001_v,37.0,2.0,2404.0,red,Fiction,0,0,0,1.0,1.0,1975.0,1
S024,Male_020_v,38.0,2.0,3623.0,green,Reality,1,3,5,1.0,1.0,1249.0,-1
S024,Male_018_v,39.0,2.0,2301.0,red,Fiction,0,0,1,1.0,1.0,1180.0,-2
S024,Opposite-sex_couple_020_h,40.0,2.0,4017.0,red,Fiction,2,4,4,1.0,1.0,2414.0,0
S024,Male_010_v,41.0,2.0,3173.0,green,Reality,1,4,4,1.0,1.0,1867.0,0
S024,Male_004_v,42.0,2.0,2902.0,green,Reality,2,2,3,1.0,1.0,1704.0,2
S024,Male_016_v,43.0,2.0,2010.0,red,Fiction,0,0,0,1.0,1.0,1673.0,-1
S024,Male_011_v,44.0,2.0,2237.0,red,Fiction,0,1,1,1.0,1.0,885.0,1
S024,Opposite-sex_couple_019_v,45.0,2.0,2268.0,green,Reality,0,1,5,1.0,1.0,1032.0,-1
S024,Opposite-sex_couple_012_h,46.0,2.0,4741.0,red,Fiction,0,2,2,1.0,1.0,891.0,-1
S024,Male_015_v,47.0,2.0,3142.0,green,Reality,1,4,5,1.0,1.0,1275.0,2
S024,Opposite-sex_couple_023_h,48.0,2.0,3547.0,red,Fiction,0,4,2,1.0,1.0,1446.0,-2
S024,Male_008_v,49.0,2.0,4159.0,green,Reality,0,5,2,1.0,1.0,1001.0,-1
S024,Opposite-sex_couple_048_h,50.0,2.0,5860.0,red,Fiction,2,4,4,1.0,1.0,1800.0,0
S053,Opposite-sex_couple_011_h,1.0,2.0,12798.0,red,Reality,5,6,6,1.0,1.0,1414.0,3
S053,Male_002_v,2.0,2.0,10935.0,red,Reality,4,2,3,1.0,1.0,2708.0,3
S053,Opposite-sex_couple_013_h,3.0,2.0,8037.0,red,Reality,0,0,0,1.0,1.0,3840.0,-2
S053,Male_012_h,4.0,2.0,7340.0,blue,Fiction,4,5,4,1.0,1.0,2071.0,2
S053,Male_001_v,5.0,2.0,17237.0,blue,Fiction,5,4,5,1.0,1.0,2531.0,3
S053,Male_014_v,6.0,2.0,6988.0,blue,Fiction,0,0,0,1.0,1.0,2268.0,3
S053,Male_009_v,7.0,2.0,9670.0,blue,Fiction,2,1,5,1.0,1.0,2831.0,2
S053,Opposite-sex_couple_005_h,8.0,2.0,24089.0,red,Reality,3,1,2,1.0,1.0,1846.0,3
S053,Male_007_h,9.0,2.0,17474.0,blue,Fiction,1,3,3,1.0,1.0,2260.0,-2
S053,Opposite-sex_couple_022_v,10.0,2.0,12044.0,red,Reality,4,3,3,1.0,1.0,1965.0,2
S053,Male_015_v,11.0,2.0,11833.0,blue,Fiction,2,4,2,1.0,1.0,2389.0,0
S053,Male_017_v,12.0,2.0,19497.0,red,Reality,5,5,4,1.0,1.0,3375.0,-1
S053,Male_021_h,13.0,2.0,18627.0,red,Reality,1,0,3,1.0,1.0,2218.0,-3
S053,Male_025_v,14.0,2.0,5422.0,red,Reality,0,0,4,1.0,1.0,1514.0,2
S053,Male_008_v,15.0,2.0,8858.0,red,Reality,0,0,3,1.0,1.0,5975.0,-1
S053,Opposite-sex_couple_012_h,16.0,2.0,16890.0,blue,Fiction,5,6,4,1.0,1.0,2032.0,2
S053,Male_013_v,17.0,2.0,4604.0,red,Reality,0,0,2,1.0,1.0,2976.0,2
S053,Male_020_v,18.0,2.0,11013.0,blue,Fiction,1,2,2,1.0,1.0,3240.0,-1
S053,Male_022_v,19.0,2.0,10831.0,red,Reality,1,2,3,1.0,1.0,2567.0,2
S053,Opposite-sex_couple_016_v,20.0,2.0,8191.0,blue,Fiction,3,2,3,1.0,1.0,3250.0,3
S053,Male_004_v,21.0,2.0,15027.0,blue,Fiction,3,2,3,1.0,1.0,1860.0,3
S053,Opposite-sex_couple_015_h,22.0,2.0,5301.0,blue,Fiction,3,2,2,1.0,1.0,2239.0,3
S053,Opposite-sex_couple_035_h,23.0,2.0,8363.0,blue,Fiction,1,2,6,1.0,1.0,1820.0,-1
S053,Male_016_v,24.0,2.0,21797.0,red,Reality,4,2,3,1.0,1.0,1287.0,3
S053,Opposite-sex_couple_014_h,25.0,2.0,12612.0,blue,Fiction,5,6,4,1.0,1.0,4878.0,-2
S053,Male_010_v,26.0,2.0,7661.0,blue,Fiction,3,2,2,1.0,1.0,2625.0,-1
S053,Opposite-sex_couple_047_v,27.0,2.0,6869.0,red,Reality,1,3,4,1.0,1.0,4977.0,-2
S053,Opposite-sex_couple_017_v,28.0,2.0,12881.0,red,Reality,5,5,6,1.0,1.0,2337.0,3
S053,Male_023_v,29.0,2.0,11809.0,red,Reality,4,2,4,1.0,1.0,515.0,2
S053,Male_019_h,30.0,2.0,8997.0,blue,Fiction,6,6,5,1.0,1.0,1899.0,3
S053,Opposite-sex_couple_002_h,31.0,2.0,7630.0,blue,Fiction,2,2,3,1.0,1.0,2687.0,2
S053,Opposite-sex_couple_025_h,32.0,2.0,7668.0,red,Reality,5,5,4,1.0,1.0,2065.0,3
S053,Opposite-sex_couple_008_h,33.0,2.0,9262.0,blue,Fiction,6,5,4,1.0,1.0,2165.0,3
S053,Opposite-sex_couple_009_h,34.0,2.0,5276.0,red,Reality,6,6,6,1.0,1.0,1763.0,3
S053,Opposite-sex_couple_001_v,35.0,2.0,9524.0,blue,Fiction,2,3,5,1.0,1.0,2244.0,2
S053,Male_011_v,36.0,2.0,5547.0,blue,Fiction,1,0,0,1.0,1.0,2472.0,0
S053,Opposite-sex_couple_007_h,37.0,2.0,5980.0,blue,Fiction,1,1,4,1.0,1.0,2382.0,3
S053,Opposite-sex_couple_023_h,38.0,2.0,5060.0,red,Reality,0,0,0,1.0,1.0,1963.0,1
S053,Male_003_v,39.0,2.0,8395.0,red,Reality,4,5,5,1.0,1.0,2239.0,0
S053,Opposite-sex_couple_042_h,40.0,2.0,8445.0,blue,Fiction,1,2,4,1.0,1.0,2843.0,2
S053,Opposite-sex_couple_024_h,41.0,2.0,8327.0,red,Reality,6,6,5,1.0,1.0,1695.0,3
S053,Male_024_h,42.0,2.0,7271.0,red,Reality,4,6,5,1.0,1.0,3051.0,2
S053,Opposite-sex_couple_019_v,43.0,2.0,6685.0,red,Reality,0,3,6,1.0,1.0,3307.0,2
S053,Opposite-sex_couple_018_h,44.0,2.0,11436.0,red,Reality,5,2,4,1.0,1.0,2504.0,2
S053,Opposite-sex_couple_020_h,45.0,2.0,7616.0,blue,Fiction,4,4,5,1.0,1.0,2224.0,0
S053,Male_006_v,46.0,2.0,4382.0,red,Reality,5,5,5,1.0,1.0,2324.0,3
S053,Male_018_v,47.0,2.0,6986.0,red,Reality,0,0,2,1.0,1.0,1835.0,-1
S053,Opposite-sex_couple_033_v,48.0,2.0,7201.0,blue,Fiction,4,3,4,1.0,1.0,1147.0,3
S053,Opposite-sex_couple_048_h,49.0,2.0,9555.0,red,Reality,3,5,4,1.0,1.0,1809.0,3
S053,Male_005_v,50.0,2.0,13941.0,blue,Fiction,0,0,1,1.0,1.0,2444.0,1
S039,Male_couple_025_v,1.0,2.0,16593.0,red,Reality,6,5,6,1.0,1.0,2081.0,3
S039,Male_020_v,2.0,2.0,10140.0,red,Reality,6,4,6,1.0,1.0,1510.0,-3
S039,Male_couple_022_v,3.0,2.0,5342.0,red,Reality,6,4,5,1.0,1.0,3697.0,-3
S039,Male_couple_047_h,4.0,2.0,4232.0,red,Reality,2,4,2,1.0,1.0,1952.0,3
S039,Male_couple_033_v,5.0,2.0,3229.0,green,Fiction,5,4,5,1.0,1.0,3120.0,3
S039,Male_couple_007_v,6.0,2.0,4176.0,red,Reality,3,4,5,1.0,1.0,1484.0,-3
S039,Male_009_v,7.0,2.0,3928.0,red,Reality,4,5,5,1.0,1.0,1936.0,-3
S039,Male_couple_003_v,8.0,2.0,3414.0,green,Fiction,4,5,4,1.0,1.0,4227.0,3
S039,Male_couple_011_v,9.0,2.0,4166.0,green,Fiction,4,4,3,1.0,1.0,1418.0,3
S039,Male_017_v,10.0,2.0,4503.0,red,Reality,3,5,3,1.0,1.0,1538.0,3
S039,Male_couple_021_h,11.0,2.0,5334.0,green,Fiction,4,4,3,1.0,1.0,1344.0,3
S039,Male_006_v,12.0,2.0,3638.0,green,Fiction,3,3,2,1.0,1.0,1942.0,3
S039,Male_couple_006_h,13.0,2.0,3817.0,red,Reality,1,2,1,1.0,1.0,1415.0,3
S039,Male_003_v,14.0,2.0,6654.0,green,Fiction,5,4,5,1.0,1.0,1414.0,3
S039,Male_couple_029_h,15.0,2.0,3407.0,red,Reality,5,4,4,1.0,1.0,1422.0,3
S039,Male_024_h,16.0,2.0,3469.0,red,Reality,5,4,4,1.0,1.0,1336.0,3
S039,Male_011_v,17.0,2.0,3536.0,green,Fiction,1,3,1,1.0,1.0,1640.0,-3
S039,Male_couple_024_h,18.0,2.0,3149.0,green,Fiction,5,5,4,1.0,1.0,1427.0,3
S039,Male_018_v,19.0,2.0,5244.0,green,Fiction,4,3,3,1.0,1.0,1690.0,3
S039,Male_couple_018_h,20.0,2.0,4772.0,green,Fiction,4,4,4,1.0,1.0,1295.0,3
S039,Male_014_v,21.0,2.0,5550.0,red,Reality,4,5,4,1.0,1.0,1550.0,-3
S039,Male_couple_016_h,22.0,2.0,5351.0,green,Fiction,4,5,4,1.0,1.0,1288.0,-3
S039,Male_couple_023_v,23.0,2.0,6275.0,red,Reality,5,5,6,1.0,1.0,1572.0,3
S039,Male_couple_044_h,24.0,2.0,3527.0,green,Fiction,3,5,3,1.0,1.0,2783.0,3
S039,Male_016_v,25.0,2.0,4855.0,red,Reality,3,4,2,1.0,1.0,1512.0,-3
S039,Male_008_v,26.0,2.0,4885.0,green,Fiction,5,5,5,1.0,1.0,1557.0,3
S039,Male_004_v,27.0,2.0,5649.0,green,Fiction,6,6,5,1.0,1.0,3364.0,3
S039,Male_012_h,28.0,2.0,3602.0,red,Reality,5,5,4,1.0,1.0,1730.0,-3
S039,Male_couple_020_h,29.0,2.0,3797.0,green,Fiction,5,6,4,1.0,1.0,2111.0,-3
S039,Male_007_h,30.0,2.0,3660.0,green,Fiction,3,5,4,1.0,1.0,1802.0,3
S039,Male_019_h,31.0,2.0,3157.0,red,Reality,2,2,2,1.0,1.0,1464.0,3
S039,Male_001_v,32.0,2.0,4659.0,green,Fiction,4,3,2,1.0,1.0,1637.0,3
S039,Male_021_h,33.0,2.0,3427.0,red,Reality,4,5,4,1.0,1.0,1545.0,-2
S039,Male_couple_013_h,34.0,2.0,4421.0,red,Reality,2,3,2,1.0,1.0,1549.0,3
S039,Male_022_v,35.0,2.0,7763.0,red,Reality,5,5,4,1.0,1.0,1454.0,3
S039,Male_couple_002_h,36.0,2.0,3467.0,red,Reality,5,5,3,1.0,1.0,1593.0,3
S039,Male_couple_014_h,37.0,2.0,3585.0,red,Reality,5,5,3,1.0,1.0,1321.0,3
S039,Male_couple_009_v,38.0,2.0,4213.0,green,Fiction,4,3,3,1.0,1.0,1406.0,3
S039,Male_couple_037_v,39.0,2.0,3978.0,red,Reality,3,3,3,1.0,1.0,3176.0,3
S039,Male_023_v,40.0,2.0,3372.0,red,Reality,5,5,3,1.0,1.0,1439.0,-3
S039,Male_005_v,41.0,2.0,7197.0,red,Reality,5,4,5,1.0,1.0,1888.0,-3
S039,Male_couple_015_v,42.0,2.0,3592.0,green,Fiction,5,5,5,1.0,1.0,1391.0,3
S039,Male_couple_010_h,43.0,2.0,3857.0,red,Reality,6,5,4,1.0,1.0,1342.0,3
S039,Male_025_v,44.0,2.0,4948.0,green,Fiction,1,1,0,1.0,1.0,11403.0,3
S039,Male_010_v,45.0,2.0,5118.0,green,Fiction,2,2,1,1.0,1.0,2377.0,2
S039,Male_couple_012_v,46.0,2.0,3985.0,red,Reality,2,3,2,1.0,1.0,1429.0,3
S039,Male_couple_019_h,47.0,2.0,5489.0,green,Fiction,4,5,4,1.0,1.0,2201.0,3
S039,Male_013_v,48.0,2.0,4415.0,red,Reality,4,4,3,1.0,1.0,3243.0,3
S039,Male_015_v,49.0,2.0,4392.0,green,Fiction,1,1,1,1.0,1.0,1562.0,3
S039,Male_002_v,50.0,2.0,4732.0,green,Fiction,1,2,1,1.0,1.0,1484.0,3
S046,Opposite-sex_couple_007_h,1.0,2.0,27498.0,red,Reality,3,3,4,1.0,1.0,1904.0,-2
S046,Female_008_v,2.0,2.0,17450.0,blue,Fiction,2,3,4,1.0,1.0,3146.0,2
S046,Opposite-sex_couple_011_h,3.0,2.0,15333.0,blue,Fiction,1,3,6,1.0,1.0,1698.0,3
S046,Female_023_h,4.0,2.0,12946.0,red,Reality,4,3,4,1.0,1.0,2300.0,2
S046,Female_001_h,5.0,2.0,12758.0,blue,Fiction,2,2,5,1.0,1.0,1759.0,3
S046,Female_018_h,6.0,2.0,13026.0,red,Reality,4,5,5,1.0,1.0,2629.0,3
S046,Opposite-sex_couple_014_h,7.0,2.0,11932.0,blue,Fiction,4,3,3,1.0,1.0,2382.0,2
S046,Female_017_v,8.0,2.0,11086.0,blue,Fiction,3,3,4,1.0,1.0,4539.0,1
S046,Female_022_h,9.0,2.0,13842.0,red,Reality,5,6,4,1.0,1.0,2082.0,3
S046,Female_007_v,10.0,2.0,13425.0,blue,Fiction,2,3,4,1.0,1.0,2510.0,-2
S046,Opposite-sex_couple_033_v,11.0,2.0,17641.0,red,Reality,2,3,5,1.0,1.0,2658.0,1
S046,Female_012_v,12.0,2.0,25582.0,blue,Fiction,4,4,6,1.0,1.0,3374.0,2
S046,Female_005_v,13.0,2.0,10497.0,blue,Fiction,2,3,3,1.0,1.0,4052.0,0
S046,Opposite-sex_couple_025_h,14.0,2.0,9144.0,blue,Fiction,5,6,4,1.0,1.0,2244.0,3
S046,Female_024_v,15.0,2.0,9434.0,red,Reality,6,5,5,1.0,1.0,1866.0,3
S046,Opposite-sex_couple_048_h,16.0,2.0,10745.0,blue,Fiction,3,3,3,1.0,1.0,2110.0,2
S046,Female_014_v,17.0,2.0,8174.0,red,Reality,4,3,5,1.0,1.0,2126.0,3
S046,Female_003_v,18.0,2.0,13260.0,blue,Fiction,3,4,3,1.0,1.0,4764.0,-1
S046,Female_004_v,19.0,2.0,18171.0,red,Reality,4,4,5,1.0,1.0,3057.0,3
S046,Opposite-sex_couple_019_v,20.0,2.0,11244.0,red,Reality,0,1,5,1.0,1.0,1751.0,3
S046,Opposite-sex_couple_015_h,21.0,2.0,12550.0,red,Reality,4,3,5,1.0,1.0,3623.0,-2
S046,Female_025_h,22.0,2.0,7385.0,red,Reality,4,4,6,1.0,1.0,4209.0,3
S046,Female_002_h,23.0,2.0,11386.0,red,Reality,5,6,5,1.0,1.0,2235.0,2
S046,Opposite-sex_couple_042_h,24.0,2.0,15032.0,blue,Fiction,1,2,5,1.0,1.0,1607.0,3
S046,Opposite-sex_couple_024_h,25.0,2.0,11312.0,blue,Fiction,4,5,4,1.0,1.0,7531.0,2
S046,Opposite-sex_couple_012_h,26.0,2.0,7481.0,red,Reality,6,6,4,1.0,1.0,3185.0,3
S046,Female_016_h,27.0,2.0,10862.0,red,Reality,1,2,3,1.0,1.0,2445.0,0
S046,Opposite-sex_couple_016_v,28.0,2.0,8674.0,red,Reality,2,3,5,1.0,1.0,2885.0,-1
S046,Opposite-sex_couple_035_h,29.0,2.0,8887.0,blue,Fiction,2,3,5,1.0,1.0,2583.0,2
S046,Opposite-sex_couple_018_h,30.0,2.0,7844.0,red,Reality,6,6,4,1.0,1.0,4068.0,2
S046,Opposite-sex_couple_008_h,31.0,2.0,7199.0,blue,Fiction,5,6,5,1.0,1.0,3425.0,3
S046,Opposite-sex_couple_023_h,32.0,2.0,8274.0,red,Reality,6,5,5,1.0,1.0,2800.0,1
S046,Female_009_h,33.0,2.0,8623.0,blue,Fiction,4,5,4,1.0,1.0,5063.0,1
S046,Female_010_h,34.0,2.0,8134.0,red,Reality,4,5,4,1.0,1.0,3923.0,1
S046,Opposite-sex_couple_005_h,35.0,2.0,8511.0,blue,Fiction,6,6,6,1.0,1.0,2176.0,0
S046,Opposite-sex_couple_001_v,36.0,2.0,11045.0,red,Reality,5,4,6,1.0,1.0,2240.0,1
S046,Female_015_v,37.0,2.0,8210.0,red,Reality,4,4,3,1.0,1.0,4004.0,3
S046,Female_006_v,38.0,2.0,9712.0,blue,Fiction,4,4,6,1.0,1.0,4428.0,-1
S046,Female_013_h,39.0,2.0,11320.0,red,Reality,5,5,6,1.0,1.0,2312.0,3
S046,Opposite-sex_couple_020_h,40.0,2.0,11324.0,blue,Fiction,4,5,6,1.0,1.0,2303.0,3
S046,Female_011_h,41.0,2.0,11743.0,blue,Fiction,3,5,4,1.0,1.0,7433.0,0
S046,Opposite-sex_couple_047_v,42.0,2.0,9994.0,red,Reality,2,3,4,1.0,1.0,2399.0,3
S046,Opposite-sex_couple_017_v,43.0,2.0,11363.0,red,Reality,4,4,4,1.0,1.0,2390.0,2
S046,Opposite-sex_couple_002_h,44.0,2.0,10437.0,red,Reality,4,4,3,1.0,1.0,2921.0,2
S046,Female_019_h,45.0,2.0,7702.0,blue,Fiction,4,4,6,1.0,1.0,1353.0,3
S046,Female_020_v,46.0,2.0,7985.0,red,Reality,5,6,6,1.0,1.0,3829.0,0
S046,Opposite-sex_couple_022_v,47.0,2.0,11017.0,blue,Fiction,4,3,4,1.0,1.0,4116.0,1
S046,Female_021_h,48.0,2.0,16490.0,blue,Fiction,4,5,4,1.0,1.0,3494.0,3
S046,Opposite-sex_couple_013_h,49.0,2.0,8576.0,red,Reality,4,5,4,1.0,1.0,5814.0,3
S046,Opposite-sex_couple_009_h,50.0,2.0,8300.0,blue,Fiction,5,5,6,1.0,1.0,2937.0,2
S004,Male_couple_021_h,1.0,2.0,9055.0,red,Reality,1,4,3,1.0,1.0,1694.0,2
S004,Male_003_v,2.0,2.0,8170.0,blue,Fiction,4,3,4,1.0,1.0,1577.0,-2
S004,Male_couple_012_v,3.0,2.0,6175.0,blue,Fiction,3,4,4,1.0,1.0,1400.0,-3
S004,Male_013_v,4.0,2.0,5224.0,red,Reality,2,2,1,1.0,1.0,2431.0,2
S004,Male_couple_024_h,5.0,2.0,3600.0,red,Reality,4,4,4,1.0,1.0,1263.0,-2
S004,Male_couple_025_v,6.0,2.0,2839.0,red,Reality,1,1,1,1.0,1.0,6576.0,3
S004,Male_006_v,7.0,2.0,3112.0,blue,Fiction,4,4,4,1.0,1.0,722.0,-3
S004,Male_couple_033_v,8.0,2.0,2695.0,red,Reality,3,3,3,1.0,1.0,1043.0,0
S004,Male_couple_020_h,9.0,2.0,4374.0,blue,Fiction,2,2,1,1.0,1.0,909.0,-3
S004,Male_couple_007_v,10.0,2.0,6416.0,red,Reality,1,2,3,1.0,1.0,1276.0,2
S004,Male_010_v,11.0,2.0,2376.0,red,Reality,1,2,2,1.0,1.0,1954.0,2
S004,Male_014_v,12.0,2.0,3538.0,blue,Fiction,4,4,4,1.0,1.0,756.0,-3
S004,Male_couple_013_h,13.0,2.0,3418.0,blue,Fiction,2,3,3,1.0,1.0,5521.0,-2
S004,Male_couple_018_h,14.0,2.0,4235.0,red,Reality,2,4,4,1.0,1.0,3738.0,0
S004,Male_015_v,15.0,2.0,2904.0,red,Reality,1,1,1,1.0,1.0,1470.0,2
S004,Male_002_v,16.0,2.0,1942.0,red,Reality,1,1,1,1.0,1.0,1425.0,0
S004,Male_023_v,17.0,2.0,2444.0,red,Reality,3,4,4,1.0,1.0,1175.0,-3
S004,Male_couple_022_v,18.0,2.0,3602.0,blue,Fiction,4,4,4,1.0,1.0,856.0,-3
S004,Male_019_h,19.0,2.0,2642.0,blue,Fiction,0,0,1,1.0,1.0,1402.0,-2
S004,Male_016_v,20.0,2.0,2948.0,blue,Fiction,2,2,2,1.0,1.0,1034.0,-2
S004,Male_001_v,21.0,2.0,2563.0,blue,Fiction,1,1,1,1.0,1.0,645.0,-3
S004,Male_couple_015_v,22.0,2.0,2537.0,red,Reality,1,1,1,1.0,1.0,948.0,3
S004,Male_couple_003_v,23.0,2.0,2771.0,blue,Fiction,2,3,3,1.0,1.0,1070.0,-2
S004,Male_018_v,24.0,2.0,2258.0,red,Reality,2,2,2,1.0,1.0,891.0,3
S004,Male_couple_023_v,25.0,2.0,3655.0,red,Reality,1,2,1,1.0,1.0,907.0,-3
S004,Male_011_v,26.0,2.0,4813.0,blue,Fiction,3,3,3,1.0,1.0,1894.0,2
S004,Male_009_v,27.0,2.0,3855.0,blue,Fiction,3,5,5,1.0,1.0,1097.0,-2
S004,Male_004_v,28.0,2.0,2443.0,blue,Fiction,5,5,5,1.0,1.0,1061.0,-2
S004,Male_couple_011_v,29.0,2.0,2955.0,red,Reality,4,4,4,1.0,1.0,2793.0,2
S004,Male_couple_010_h,30.0,2.0,3675.0,red,Reality,1,2,2,1.0,1.0,1409.0,-1
S004,Male_couple_009_v,31.0,2.0,3453.0,blue,Fiction,1,2,1,1.0,1.0,1243.0,-2
S004,Male_couple_044_h,32.0,2.0,2130.0,blue,Fiction,3,3,3,1.0,1.0,907.0,0
S004,Male_017_v,33.0,2.0,2621.0,red,Reality,4,5,5,1.0,1.0,1091.0,-2
S004,Male_couple_047_h,34.0,2.0,3391.0,red,Reality,2,4,4,1.0,1.0,1707.0,2
S004,Male_024_h,35.0,2.0,3369.0,red,Reality,4,4,4,1.0,1.0,1464.0,0
S004,Male_020_v,36.0,2.0,2733.0,red,Reality,4,4,4,1.0,1.0,1315.0,-2
S004,Male_couple_016_h,37.0,2.0,3332.0,blue,Fiction,3,4,4,1.0,1.0,1459.0,-2
S004,Male_couple_019_h,38.0,2.0,4268.0,red,Reality,2,2,2,1.0,1.0,1045.0,2
S004,Male_couple_006_h,39.0,2.0,4797.0,blue,Fiction,2,5,4,1.0,1.0,758.0,-2
S004,Male_couple_037_v,40.0,2.0,2131.0,red,Reality,2,4,4,1.0,1.0,1139.0,0
S004,Male_couple_014_h,41.0,2.0,2704.0,blue,Fiction,2,2,1,1.0,1.0,942.0,-3
S004,Male_couple_002_h,42.0,2.0,2765.0,blue,Fiction,2,3,4,1.0,1.0,2323.0,-2
S004,Male_005_v,43.0,2.0,2554.0,red,Reality,3,4,3,1.0,1.0,884.0,-3
S004,Male_007_h,44.0,2.0,4209.0,blue,Fiction,1,2,2,1.0,1.0,3449.0,-2
S004,Male_012_h,45.0,2.0,2550.0,blue,Fiction,5,5,5,1.0,1.0,1797.0,-3
S004,Male_022_v,46.0,2.0,4152.0,red,Reality,6,6,6,1.0,1.0,1229.0,-3
S004,Male_025_v,47.0,2.0,3876.0,red,Reality,1,1,2,1.0,1.0,1407.0,2
S004,Male_021_h,48.0,2.0,2928.0,blue,Fiction,5,5,5,1.0,1.0,1159.0,3
S004,Male_008_v,49.0,2.0,2169.0,red,Reality,1,1,1,1.0,1.0,714.0,-3
S004,Male_couple_029_h,50.0,2.0,2076.0,blue,Fiction,1,4,4,1.0,1.0,1585.0,-2
S041,Opposite-sex_couple_047_v,1.0,2.0,11391.0,red,Fiction,0,0,3,1.0,1.0,4142.0,3
S041,Male_014_v,2.0,2.0,12599.0,green,Reality,2,2,4,1.0,1.0,2569.0,-3
S041,Opposite-sex_couple_001_v,3.0,2.0,7562.0,green,Reality,2,2,3,1.0,1.0,2982.0,3
S041,Opposite-sex_couple_024_h,4.0,2.0,6711.0,green,Reality,3,3,3,1.0,1.0,2143.0,3
S041,Male_004_v,5.0,2.0,4703.0,red,Fiction,0,0,0,1.0,1.0,1000.0,3
S041,Opposite-sex_couple_042_h,6.0,2.0,4949.0,green,Reality,0,0,3,1.0,1.0,1249.0,3
S041,Opposite-sex_couple_011_h,7.0,2.0,4433.0,green,Reality,0,0,2,1.0,1.0,1062.0,3
S041,Male_011_v,8.0,2.0,4133.0,red,Fiction,0,0,0,1.0,1.0,1652.0,3
S041,Male_024_h,9.0,2.0,5637.0,green,Reality,0,3,3,1.0,1.0,2121.0,3
S041,Male_002_v,10.0,2.0,4851.0,green,Reality,0,0,0,1.0,1.0,1031.0,3
S041,Male_005_v,11.0,2.0,4269.0,green,Reality,0,0,0,1.0,1.0,1884.0,-3
S041,Male_006_v,12.0,2.0,5734.0,red,Fiction,0,0,0,1.0,1.0,2076.0,-3
S041,Male_015_v,13.0,2.0,6371.0,green,Reality,0,3,1,1.0,1.0,1494.0,3
S041,Opposite-sex_couple_008_h,14.0,2.0,8407.0,red,Fiction,2,2,2,1.0,1.0,1282.0,3
S041,Male_003_v,15.0,2.0,5439.0,red,Fiction,0,0,0,1.0,1.0,2117.0,-3
S041,Male_025_v,16.0,2.0,3742.0,green,Reality,0,0,0,1.0,1.0,3227.0,3
S041,Male_009_v,17.0,2.0,4836.0,green,Reality,2,2,3,1.0,1.0,1479.0,-3
S041,Male_023_v,18.0,2.0,4278.0,red,Fiction,0,2,2,1.0,1.0,2085.0,-3
S041,Opposite-sex_couple_012_h,19.0,2.0,6227.0,red,Fiction,0,2,2,1.0,1.0,1298.0,3
S041,Male_016_v,20.0,2.0,4706.0,green,Reality,0,0,0,1.0,1.0,2349.0,3
S041,Opposite-sex_couple_018_h,21.0,2.0,4840.0,green,Reality,0,0,0,1.0,1.0,1337.0,3
S041,Opposite-sex_couple_025_h,22.0,2.0,5910.0,red,Fiction,3,3,4,1.0,1.0,1147.0,3
S041,Male_007_h,23.0,2.0,5549.0,red,Fiction,0,0,0,1.0,1.0,2064.0,-3
S041,Male_020_v,24.0,2.0,3517.0,green,Reality,0,0,0,1.0,1.0,1216.0,-3
S041,Opposite-sex_couple_002_h,25.0,2.0,4437.0,red,Fiction,0,0,0,1.0,1.0,1054.0,3
S041,Opposite-sex_couple_015_h,26.0,2.0,4652.0,green,Reality,0,0,0,1.0,1.0,2233.0,3
S041,Male_017_v,27.0,2.0,4437.0,red,Fiction,0,0,0,1.0,1.0,1119.0,3
S041,Male_019_h,28.0,2.0,4306.0,green,Reality,0,0,0,1.0,1.0,1494.0,3
S041,Opposite-sex_couple_033_v,29.0,2.0,5298.0,red,Fiction,2,3,3,1.0,1.0,1445.0,3
S041,Opposite-sex_couple_007_h,30.0,2.0,3823.0,red,Fiction,0,0,0,1.0,1.0,1078.0,3
S041,Opposite-sex_couple_005_h,31.0,2.0,5336.0,green,Reality,2,2,2,1.0,1.0,1767.0,3
S041,Opposite-sex_couple_013_h,32.0,2.0,4284.0,red,Fiction,0,0,0,1.0,1.0,1998.0,-3
S041,Opposite-sex_couple_022_v,33.0,2.0,3507.0,red,Fiction,0,0,0,1.0,1.0,2094.0,-3
S041,Opposite-sex_couple_017_v,34.0,2.0,4756.0,red,Fiction,2,3,3,1.0,1.0,3116.0,-3
S041,Male_013_v,35.0,2.0,3309.0,red,Fiction,0,0,0,1.0,1.0,1863.0,-3
S041,Opposite-sex_couple_016_v,36.0,2.0,3949.0,green,Reality,0,0,0,1.0,1.0,2051.0,-3
S041,Opposite-sex_couple_014_h,37.0,2.0,3382.0,red,Fiction,0,0,0,1.0,1.0,1745.0,3
S041,Male_010_v,38.0,2.0,4290.0,red,Fiction,0,2,2,1.0,1.0,2161.0,-3
S041,Opposite-sex_couple_019_v,39.0,2.0,3962.0,red,Fiction,0,2,2,1.0,1.0,1855.0,3
S041,Opposite-sex_couple_048_h,40.0,2.0,3907.0,green,Reality,0,1,1,1.0,1.0,1051.0,3
S041,Male_021_h,41.0,2.0,4596.0,green,Reality,0,0,0,1.0,1.0,1909.0,-3
S041,Male_018_v,42.0,2.0,5706.0,red,Fiction,0,0,0,1.0,1.0,1809.0,-3
S041,Opposite-sex_couple_020_h,43.0,2.0,6815.0,green,Reality,2,3,3,1.0,1.0,1196.0,3
S041,Male_008_v,44.0,2.0,3768.0,red,Fiction,0,0,0,1.0,1.0,2397.0,3
S041,Opposite-sex_couple_009_h,45.0,2.0,4194.0,green,Reality,2,2,2,1.0,1.0,999.0,3
S041,Male_001_v,46.0,2.0,3009.0,red,Fiction,0,0,0,1.0,1.0,1714.0,3
S041,Male_022_v,47.0,2.0,3893.0,green,Reality,0,0,0,1.0,1.0,1117.0,3
S041,Opposite-sex_couple_023_h,48.0,2.0,3398.0,green,Reality,0,0,0,1.0,1.0,1636.0,3
S041,Male_012_h,49.0,2.0,3444.0,green,Reality,0,0,0,1.0,1.0,1214.0,3
S041,Opposite-sex_couple_035_h,50.0,2.0,3910.0,green,Reality,0,0,0,1.0,1.0,2361.0,-3
S060,Opposite-sex_couple_017_v,1.0,2.0,8471.0,blue,Reality,4,5,6,1.0,1.0,1583.0,3
S060,Opposite-sex_couple_024_h,2.0,2.0,5976.0,blue,Reality,5,4,5,1.0,1.0,1658.0,0
S060,Male_008_v,3.0,2.0,6413.0,blue,Reality,6,6,6,1.0,1.0,1240.0,2
S060,Opposite-sex_couple_009_h,4.0,2.0,6214.0,red,Fiction,4,5,4,1.0,1.0,1756.0,-3
S060,Opposite-sex_couple_019_v,5.0,2.0,5782.0,red,Fiction,0,0,0,1.0,1.0,1805.0,-3
S060,Male_025_v,6.0,2.0,5425.0,red,Fiction,0,0,6,1.0,1.0,1457.0,1
S060,Opposite-sex_couple_015_h,7.0,2.0,4345.0,blue,Reality,4,3,2,1.0,1.0,1724.0,-1
S060,Male_005_v,8.0,2.0,5157.0,blue,Reality,5,6,0,1.0,1.0,2239.0,-3
S060,Male_012_h,9.0,2.0,5322.0,blue,Reality,4,3,2,1.0,1.0,1650.0,-1
S060,Opposite-sex_couple_033_v,10.0,2.0,5875.0,red,Fiction,1,2,2,1.0,1.0,1313.0,3
S060,Male_013_v,11.0,2.0,6139.0,red,Fiction,1,3,4,1.0,1.0,1691.0,3
S060,Male_009_v,12.0,2.0,7836.0,blue,Reality,3,2,6,1.0,1.0,2799.0,1
S060,Male_010_v,13.0,2.0,4948.0,red,Fiction,2,0,6,1.0,1.0,1598.0,3
S060,Male_011_v,14.0,2.0,5246.0,red,Fiction,0,0,6,1.0,1.0,1525.0,3
S060,Opposite-sex_couple_035_h,15.0,2.0,5479.0,red,Fiction,0,0,6,1.0,1.0,2046.0,-2
S060,Male_020_v,16.0,2.0,4523.0,red,Fiction,2,1,4,1.0,1.0,1647.0,-3
S060,Opposite-sex_couple_020_h,17.0,2.0,4782.0,red,Fiction,4,2,5,1.0,1.0,1514.0,3
S060,Opposite-sex_couple_008_h,18.0,2.0,5637.0,red,Fiction,4,2,4,1.0,1.0,1560.0,3
S060,Opposite-sex_couple_007_h,19.0,2.0,5479.0,red,Fiction,0,3,6,1.0,1.0,1885.0,2
S060,Opposite-sex_couple_011_h,20.0,2.0,5878.0,blue,Reality,2,4,3,1.0,1.0,1266.0,3
S060,Opposite-sex_couple_016_v,21.0,2.0,4826.0,blue,Reality,0,2,4,1.0,1.0,1362.0,-1
S060,Male_002_v,22.0,2.0,5096.0,red,Fiction,6,4,6,1.0,1.0,1393.0,2
S060,Male_014_v,23.0,2.0,5414.0,red,Fiction,6,6,6,1.0,1.0,1627.0,3
S060,Opposite-sex_couple_005_h,24.0,2.0,6211.0,blue,Reality,6,5,6,1.0,1.0,1889.0,3
S060,Opposite-sex_couple_001_v,25.0,2.0,5352.0,blue,Reality,0,1,6,1.0,1.0,1369.0,3
S060,Opposite-sex_couple_012_h,26.0,2.0,4975.0,blue,Reality,2,4,0,1.0,1.0,1436.0,3
S060,Male_024_h,27.0,2.0,4420.0,blue,Reality,5,6,6,1.0,1.0,1959.0,3
S060,Opposite-sex_couple_018_h,28.0,2.0,4636.0,blue,Reality,0,0,0,1.0,1.0,2668.0,2
S060,Opposite-sex_couple_025_h,29.0,2.0,5813.0,blue,Reality,4,5,6,1.0,1.0,3915.0,3
S060,Male_019_h,30.0,2.0,5334.0,blue,Reality,0,2,0,1.0,1.0,1513.0,3
S060,Opposite-sex_couple_048_h,31.0,2.0,5560.0,red,Fiction,2,3,6,1.0,1.0,1478.0,3
S060,Opposite-sex_couple_002_h,32.0,2.0,6058.0,blue,Reality,1,0,6,1.0,1.0,1531.0,3
S060,Male_017_v,33.0,2.0,6020.0,blue,Reality,0,1,0,1.0,1.0,1610.0,0
S060,Male_016_v,34.0,2.0,6733.0,red,Fiction,0,2,6,1.0,1.0,1373.0,2
S060,Male_003_v,35.0,2.0,6607.0,blue,Reality,3,4,6,1.0,1.0,2005.0,2
S060,Opposite-sex_couple_023_h,36.0,2.0,7982.0,red,Fiction,3,4,6,1.0,1.0,1487.0,3
S060,Male_015_v,37.0,2.0,5259.0,red,Fiction,0,0,0,1.0,1.0,2143.0,2
S060,Male_023_v,38.0,2.0,7968.0,blue,Reality,2,1,6,1.0,1.0,1659.0,-1
S060,Male_018_v,39.0,2.0,5582.0,blue,Reality,1,0,6,1.0,1.0,1300.0,2
S060,Opposite-sex_couple_042_h,40.0,2.0,5434.0,blue,Reality,0,4,6,1.0,1.0,1421.0,0
S060,Male_001_v,41.0,2.0,4753.0,red,Fiction,0,0,4,1.0,1.0,1827.0,1
S060,Male_006_v,42.0,2.0,4595.0,blue,Reality,0,1,6,1.0,1.0,1793.0,0
S060,Male_021_h,43.0,2.0,5470.0,red,Fiction,0,2,6,1.0,1.0,1720.0,-3
S060,Opposite-sex_couple_013_h,44.0,2.0,6843.0,blue,Reality,2,3,0,1.0,1.0,1948.0,-2
S060,Opposite-sex_couple_014_h,45.0,2.0,5030.0,red,Fiction,6,6,3,1.0,1.0,1492.0,3
S060,Opposite-sex_couple_022_v,46.0,2.0,4693.0,red,Fiction,0,2,6,1.0,1.0,1721.0,3
S060,Opposite-sex_couple_047_v,47.0,2.0,5082.0,red,Fiction,1,1,6,1.0,1.0,1737.0,-2
S060,Male_022_v,48.0,2.0,5122.0,blue,Reality,6,5,3,1.0,1.0,1615.0,-2
S060,Male_004_v,49.0,2.0,5008.0,blue,Reality,4,3,6,1.0,1.0,1519.0,2
S060,Male_007_h,50.0,2.0,4616.0,red,Fiction,0,0,6,1.0,1.0,1188.0,3
S017,Opposite-sex_couple_015_h,1.0,2.0,14427.0,red,Fiction,0,3,2,1.0,1.0,1305.0,3
S017,Opposite-sex_couple_022_v,2.0,2.0,7690.0,red,Fiction,0,2,2,1.0,1.0,2304.0,1
S017,Opposite-sex_couple_013_h,3.0,2.0,6715.0,red,Fiction,0,0,0,1.0,1.0,1275.0,3
S017,Opposite-sex_couple_005_h,4.0,2.0,9952.0,red,Fiction,2,4,3,1.0,1.0,1305.0,3
S017,Opposite-sex_couple_009_h,5.0,2.0,6306.0,blue,Reality,4,5,3,1.0,1.0,1236.0,1
S017,Opposite-sex_couple_042_h,6.0,2.0,5406.0,red,Fiction,0,2,4,1.0,1.0,1499.0,-1
S017,Female_005_v,7.0,2.0,8125.0,red,Fiction,1,4,3,1.0,1.0,2221.0,3
S017,Opposite-sex_couple_018_h,8.0,2.0,7687.0,blue,Reality,0,5,2,1.0,1.0,1332.0,3
S017,Opposite-sex_couple_023_h,9.0,2.0,5192.0,blue,Reality,0,1,0,1.0,1.0,1386.0,2
S017,Opposite-sex_couple_035_h,10.0,2.0,6359.0,red,Fiction,1,3,3,1.0,1.0,1483.0,3
S017,Female_021_h,11.0,2.0,4927.0,blue,Reality,3,3,4,1.0,1.0,1210.0,-2
S017,Opposite-sex_couple_012_h,12.0,2.0,8639.0,blue,Reality,1,5,4,1.0,1.0,1326.0,3
S017,Female_018_h,13.0,2.0,9399.0,red,Fiction,5,6,5,1.0,1.0,1211.0,2
S017,Opposite-sex_couple_007_h,14.0,2.0,5515.0,blue,Reality,0,2,6,1.0,1.0,1403.0,3
S017,Female_006_v,15.0,2.0,4124.0,blue,Reality,2,4,3,1.0,1.0,1003.0,-2
S017,Female_015_v,16.0,2.0,6141.0,red,Fiction,0,3,5,1.0,1.0,1525.0,-2
S017,Opposite-sex_couple_017_v,17.0,2.0,4471.0,red,Fiction,3,4,4,1.0,1.0,1409.0,3
S017,Female_001_h,18.0,2.0,2984.0,blue,Reality,3,3,3,1.0,1.0,1438.0,3
S017,Female_022_h,19.0,2.0,6547.0,blue,Reality,4,4,4,1.0,1.0,869.0,3
S017,Opposite-sex_couple_047_v,20.0,2.0,5034.0,blue,Reality,2,3,3,1.0,1.0,1214.0,3
S017,Female_011_h,21.0,2.0,5787.0,blue,Reality,3,6,4,1.0,1.0,1991.0,-3
S017,Opposite-sex_couple_033_v,22.0,2.0,7002.0,blue,Reality,2,3,5,1.0,1.0,1834.0,3
S017,Female_020_v,23.0,2.0,5627.0,blue,Reality,6,6,6,1.0,1.0,2867.0,-2
S017,Female_024_v,24.0,2.0,5403.0,blue,Reality,1,4,4,1.0,1.0,2715.0,-3
S017,Female_023_h,25.0,2.0,5265.0,blue,Reality,2,4,4,1.0,1.0,1515.0,3
S017,Female_013_h,26.0,2.0,6588.0,red,Fiction,2,2,2,1.0,1.0,1135.0,-3
S017,Opposite-sex_couple_002_h,27.0,2.0,6365.0,blue,Reality,1,2,2,1.0,1.0,999.0,3
S017,Female_003_v,28.0,2.0,4653.0,red,Fiction,2,4,3,1.0,1.0,1920.0,0
S017,Opposite-sex_couple_048_h,29.0,2.0,3311.0,blue,Reality,2,4,4,1.0,1.0,1070.0,3
S017,Female_009_h,30.0,2.0,10358.0,red,Fiction,0,2,1,1.0,1.0,1037.0,3
S017,Opposite-sex_couple_016_v,31.0,2.0,5145.0,red,Fiction,1,3,2,1.0,1.0,1735.0,2
S017,Female_007_v,32.0,2.0,5058.0,blue,Reality,0,3,5,1.0,1.0,907.0,3
S017,Female_010_h,33.0,2.0,6630.0,red,Fiction,1,4,4,1.0,1.0,1736.0,-1
S017,Opposite-sex_couple_001_v,34.0,2.0,5271.0,blue,Reality,0,2,1,1.0,1.0,3594.0,1
S017,Female_012_v,35.0,2.0,4724.0,blue,Reality,3,5,3,1.0,1.0,1453.0,-2
S017,Opposite-sex_couple_008_h,36.0,2.0,5322.0,blue,Reality,4,6,5,1.0,1.0,2135.0,-2
S017,Opposite-sex_couple_025_h,37.0,2.0,6134.0,red,Fiction,5,6,6,1.0,1.0,2982.0,3
S017,Female_016_h,38.0,2.0,4805.0,red,Fiction,0,2,2,1.0,1.0,2484.0,-2
S017,Female_017_v,39.0,2.0,5057.0,red,Fiction,3,5,3,1.0,1.0,1228.0,-3
S017,Opposite-sex_couple_019_v,40.0,2.0,7108.0,red,Fiction,0,4,6,1.0,1.0,1233.0,2
S017,Female_002_h,41.0,2.0,13948.0,red,Fiction,3,5,5,1.0,1.0,2561.0,-1
S017,Female_025_h,42.0,2.0,4381.0,red,Fiction,1,3,3,1.0,1.0,1582.0,3
S017,Female_014_v,43.0,2.0,4261.0,blue,Reality,1,4,3,1.0,1.0,1749.0,-1
S017,Opposite-sex_couple_020_h,44.0,2.0,4368.0,blue,Reality,3,4,3,1.0,1.0,3134.0,1
S017,Opposite-sex_couple_011_h,45.0,2.0,6952.0,red,Fiction,0,3,4,1.0,1.0,2234.0,2
S017,Female_019_h,46.0,2.0,4198.0,blue,Reality,0,2,4,1.0,1.0,2183.0,-3
S017,Female_008_v,47.0,2.0,4999.0,red,Fiction,2,4,3,1.0,1.0,1480.0,1
S017,Opposite-sex_couple_014_h,48.0,2.0,5807.0,blue,Reality,5,6,6,1.0,1.0,1644.0,3
S017,Female_004_v,49.0,2.0,5021.0,blue,Reality,1,4,5,1.0,1.0,5881.0,2
S017,Opposite-sex_couple_024_h,50.0,2.0,4311.0,red,Fiction,0,2,0,1.0,1.0,1558.0,-3
S042,Male_017_v,1.0,2.0,8397.0,red,Reality,0,0,0,1.0,1.0,2310.0,-2
S042,Male_006_v,2.0,2.0,6459.0,red,Reality,0,0,0,1.0,1.0,3119.0,-2
S042,Male_001_v,3.0,2.0,4615.0,blue,Fiction,0,0,0,1.0,1.0,2653.0,-1
S042,Opposite-sex_couple_025_h,4.0,2.0,8872.0,red,Reality,4,4,4,1.0,1.0,3476.0,3
S042,Male_025_v,5.0,2.0,6091.0,red,Reality,0,0,0,1.0,1.0,2191.0,1
S042,Opposite-sex_couple_022_v,6.0,2.0,4867.0,red,Reality,1,1,1,1.0,1.0,2281.0,3
S042,Male_022_v,7.0,2.0,7801.0,red,Reality,2,2,2,1.0,1.0,3173.0,3
S042,Male_019_h,8.0,2.0,4984.0,red,Reality,3,3,3,1.0,1.0,1997.0,-2
S042,Opposite-sex_couple_033_v,9.0,2.0,5243.0,red,Reality,2,2,2,1.0,1.0,1852.0,1
S042,Opposite-sex_couple_024_h,10.0,2.0,5044.0,red,Reality,3,3,3,1.0,1.0,2286.0,2
S042,Opposite-sex_couple_013_h,11.0,2.0,5049.0,blue,Fiction,1,1,1,1.0,1.0,2557.0,-1
S042,Opposite-sex_couple_023_h,12.0,2.0,5579.0,red,Reality,1,1,1,1.0,1.0,2925.0,-1
S042,Opposite-sex_couple_018_h,13.0,2.0,6362.0,red,Reality,3,3,3,1.0,1.0,2434.0,3
S042,Male_012_h,14.0,2.0,4363.0,red,Reality,3,3,3,1.0,1.0,2157.0,2
S042,Opposite-sex_couple_008_h,15.0,2.0,5473.0,blue,Fiction,3,3,3,1.0,1.0,2922.0,0
S042,Male_003_v,16.0,2.0,9525.0,red,Reality,3,3,3,1.0,1.0,2383.0,-1
S042,Opposite-sex_couple_005_h,17.0,2.0,4538.0,red,Reality,4,4,4,1.0,1.0,2285.0,3
S042,Male_008_v,18.0,2.0,4345.0,blue,Fiction,2,2,2,1.0,1.0,1869.0,-2
S042,Opposite-sex_couple_048_h,19.0,2.0,5656.0,blue,Fiction,1,1,1,1.0,1.0,3136.0,1
S042,Opposite-sex_couple_007_h,20.0,2.0,5258.0,blue,Fiction,1,1,1,1.0,1.0,2034.0,-2
S042,Opposite-sex_couple_012_h,21.0,2.0,7533.0,blue,Fiction,3,3,3,1.0,1.0,3736.0,-1
S042,Male_024_h,22.0,2.0,5677.0,red,Reality,1,1,1,1.0,1.0,1867.0,-3
S042,Male_010_v,23.0,2.0,4565.0,red,Reality,1,1,1,1.0,1.0,1956.0,-3
S042,Male_020_v,24.0,2.0,6896.0,blue,Fiction,1,1,1,1.0,1.0,2611.0,-3
S042,Opposite-sex_couple_017_v,25.0,2.0,7369.0,red,Reality,1,1,1,1.0,1.0,1665.0,1
S042,Male_021_h,26.0,2.0,5117.0,blue,Fiction,0,0,0,1.0,1.0,1597.0,-3
S042,Male_004_v,27.0,2.0,4493.0,red,Reality,1,1,1,1.0,1.0,2934.0,1
S042,Male_014_v,28.0,2.0,4614.0,red,Reality,2,2,2,1.0,1.0,9173.0,3
S042,Opposite-sex_couple_035_h,29.0,2.0,5672.0,red,Reality,0,0,0,1.0,1.0,2752.0,-3
S042,Male_002_v,30.0,2.0,4420.0,blue,Fiction,1,1,1,1.0,1.0,5430.0,1
S042,Male_009_v,31.0,2.0,4139.0,blue,Fiction,0,0,0,1.0,1.0,2792.0,-3
S042,Male_007_h,32.0,2.0,4781.0,blue,Fiction,0,0,0,1.0,1.0,2540.0,1
S042,Opposite-sex_couple_042_h,33.0,2.0,4783.0,blue,Fiction,0,0,0,1.0,1.0,2533.0,3
S042,Opposite-sex_couple_011_h,34.0,2.0,7851.0,red,Reality,0,0,0,1.0,1.0,4385.0,1
S042,Male_023_v,35.0,2.0,4605.0,blue,Fiction,1,1,1,1.0,1.0,2079.0,-1
S042,Opposite-sex_couple_002_h,36.0,2.0,4401.0,blue,Fiction,2,2,2,1.0,1.0,1680.0,-1
S042,Opposite-sex_couple_047_v,37.0,2.0,5619.0,blue,Fiction,1,1,1,1.0,1.0,1202.0,2
S042,Male_013_v,38.0,2.0,4777.0,blue,Fiction,0,0,0,1.0,1.0,1961.0,-2
S042,Male_005_v,39.0,2.0,4453.0,red,Reality,0,0,0,1.0,1.0,2177.0,-3
S042,Opposite-sex_couple_015_h,40.0,2.0,5727.0,blue,Fiction,1,1,1,1.0,1.0,2071.0,0
S042,Male_016_v,41.0,2.0,4282.0,blue,Fiction,0,0,0,1.0,1.0,2884.0,0
S042,Male_018_v,42.0,2.0,4591.0,blue,Fiction,0,0,0,1.0,1.0,2214.0,2
S042,Opposite-sex_couple_020_h,43.0,2.0,4713.0,red,Reality,2,2,2,1.0,1.0,1461.0,-2
S042,Opposite-sex_couple_001_v,44.0,2.0,7877.0,blue,Fiction,0,0,0,1.0,1.0,1533.0,-3
S042,Male_015_v,45.0,2.0,4143.0,red,Reality,0,0,0,1.0,1.0,2953.0,-3
S042,Opposite-sex_couple_016_v,46.0,2.0,4677.0,blue,Fiction,1,1,1,1.0,1.0,2147.0,1
S042,Opposite-sex_couple_014_h,47.0,2.0,4807.0,red,Reality,2,2,2,1.0,1.0,2405.0,2
S042,Male_011_v,48.0,2.0,4414.0,blue,Fiction,0,0,0,1.0,1.0,1444.0,-3
S042,Opposite-sex_couple_019_v,49.0,2.0,15858.0,blue,Fiction,2,2,4,1.0,1.0,1921.0,-1
S042,Opposite-sex_couple_009_h,50.0,2.0,6078.0,red,Reality,3,3,4,1.0,1.0,3298.0,-1
S022,Opposite-sex_couple_013_h,1.0,2.0,14532.0,blue,Fiction,6,2,0,1.0,1.0,1386.0,3
S022,Male_016_v,2.0,2.0,5026.0,green,Reality,6,6,6,1.0,1.0,1359.0,3
S022,Opposite-sex_couple_047_v,3.0,2.0,3918.0,green,Reality,6,6,6,1.0,1.0,1205.0,3
S022,Male_003_v,4.0,2.0,3841.0,blue,Fiction,6,6,6,1.0,1.0,1161.0,3
S022,Opposite-sex_couple_020_h,5.0,2.0,3434.0,blue,Fiction,6,6,6,1.0,1.0,1175.0,3
S022,Male_006_v,6.0,2.0,3712.0,blue,Fiction,6,6,6,1.0,1.0,1191.0,3
S022,Male_005_v,7.0,2.0,4361.0,green,Reality,0,0,0,1.0,1.0,1880.0,-3
S022,Opposite-sex_couple_007_h,8.0,2.0,4487.0,blue,Fiction,6,6,6,1.0,1.0,1226.0,3
S022,Opposite-sex_couple_048_h,9.0,2.0,3239.0,green,Reality,6,6,6,1.0,1.0,1513.0,3
S022,Male_013_v,10.0,2.0,3327.0,green,Reality,6,6,6,1.0,1.0,1262.0,3
S022,Opposite-sex_couple_019_v,11.0,2.0,3444.0,green,Reality,6,6,6,1.0,1.0,1324.0,3
S022,Opposite-sex_couple_022_v,12.0,2.0,2700.0,green,Reality,6,6,6,1.0,1.0,1169.0,3
S022,Opposite-sex_couple_024_h,13.0,2.0,2627.0,green,Reality,6,6,6,1.0,1.0,1273.0,3
S022,Opposite-sex_couple_012_h,14.0,2.0,2934.0,green,Reality,6,6,6,1.0,1.0,1206.0,3
S022,Male_025_v,15.0,2.0,4212.0,blue,Fiction,6,6,6,1.0,1.0,3832.0,-3
S022,Opposite-sex_couple_008_h,16.0,2.0,2690.0,green,Reality,6,6,6,1.0,1.0,1348.0,3
S022,Male_017_v,17.0,2.0,2806.0,green,Reality,6,6,6,1.0,1.0,1643.0,0
S022,Male_019_h,18.0,2.0,3619.0,green,Reality,6,6,6,1.0,1.0,1833.0,3
S022,Male_011_v,19.0,2.0,2808.0,blue,Fiction,6,6,6,1.0,1.0,1394.0,-3
S022,Male_010_v,20.0,2.0,2519.0,blue,Fiction,6,6,6,1.0,1.0,1437.0,-3
S022,Opposite-sex_couple_025_h,21.0,2.0,3750.0,green,Reality,6,6,6,1.0,1.0,1373.0,3
